workerid,proliferate.condition,internal_node_id,response,response_0,response_1,response_2,rt,slider_0,slider_1,slider_2,slider_start,stimulus,success,time_elapsed,trial_index,trial_type,error,time_value
129,30_bit,0.0-22.0,,100,0,0,12356,I'll be here for a bit,I'll be here for a while,<em>something else</em>,0,<p><img src="../proexpec/q/q_b_5.jpg" class="scaled-img" /></p><p style="font-size: 22px">How likely do you think it is that the man will respond with each of the following sentences? <br>Make sure that your responses sum up to 100.</p>,,120890,22,html-multi-slider-response,,5
129,30_bit,0.0-23.0,,0,100,0,6038,I'll be here for a bit,I'll be here for a while,<em>something else</em>,0,<p><img src="../proexpec/q/q_b_15.jpg" class="scaled-img" /></p><p style="font-size: 22px">How likely do you think it is that the man will respond with each of the following sentences? <br>Make sure that your responses sum up to 100.</p>,,127179,23,html-multi-slider-response,,15
129,30_bit,0.0-24.0,,0,100,0,4580,I'll be here for a bit,I'll be here for a while,<em>something else</em>,0,<p><img src="../proexpec/q/q_b_60.jpg" class="scaled-img" /></p><p style="font-size: 22px">How likely do you think it is that the man will respond with each of the following sentences? <br>Make sure that your responses sum up to 100.</p>,,132011,24,html-multi-slider-response,,60
129,30_bit,0.0-25.0,,0,100,0,7780,I'll be here for a bit,I'll be here for a while,<em>something else</em>,0,<p><img src="../proexpec/q/q_b_45.jpg" class="scaled-img" /></p><p style="font-size: 22px">How likely do you think it is that the man will respond with each of the following sentences? <br>Make sure that your responses sum up to 100.</p>,,140043,25,html-multi-slider-response,,45
129,30_bit,0.0-26.0,,100,0,0,3397,I'll be here for a bit,I'll be here for a while,<em>something else</em>,0,<p><img src="../proexpec/q/q_b_5.jpg" class="scaled-img" /></p><p style="font-size: 22px">How likely do you think it is that the man will respond with each of the following sentences? <br>Make sure that your responses sum up to 100.</p>,,143692,26,html-multi-slider-response,,5
129,30_bit,0.0-27.0,,0,100,0,5483,I'll be here for a bit,I'll be here for a while,<em>something else</em>,0,<p><img src="../proexpec/q/q_b_120.jpg" class="scaled-img" /></p><p style="font-size: 22px">How likely do you think it is that the man will respond with each of the following sentences? <br>Make sure that your responses sum up to 100.</p>,,149427,27,html-multi-slider-response,,120
129,30_bit,0.0-28.0,,0,100,0,4942,I'll be here for a bit,I'll be here for a while,<em>something else</em>,0,<p><img src="../proexpec/q/q_b_15.jpg" class="scaled-img" /></p><p style="font-size: 22px">How likely do you think it is that the man will respond with each of the following sentences? <br>Make sure that your responses sum up to 100.</p>,,154620,28,html-multi-slider-response,,15
129,30_bit,0.0-29.0,,100,0,0,3362,I'll be here for a bit,I'll be here for a while,<em>something else</em>,0,<p><img src="../proexpec/q/q_b_10.jpg" class="scaled-img" /></p><p style="font-size: 22px">How likely do you think it is that the man will respond with each of the following sentences? <br>Make sure that your responses sum up to 100.</p>,,158234,29,html-multi-slider-response,,10
129,30_bit,0.0-30.0,,0,100,0,4163,I'll be here for a bit,I'll be here for a while,<em>something else</em>,0,<p><img src="../proexpec/q/q_b_60.jpg" class="scaled-img" /></p><p style="font-size: 22px">How likely do you think it is that the man will respond with each of the following sentences? <br>Make sure that your responses sum up to 100.</p>,,162648,30,html-multi-slider-response,,60
129,30_bit,0.0-31.0,,0,100,0,5326,I'll be here for a bit,I'll be here for a while,<em>something else</em>,0,<p><img src="../proexpec/q/q_b_90.jpg" class="scaled-img" /></p><p style="font-size: 22px">How likely do you think it is that the man will respond with each of the following sentences? <br>Make sure that your responses sum up to 100.</p>,,168226,31,html-multi-slider-response,,90
129,30_bit,0.0-32.0,,0,100,0,2786,I'll be here for a bit,I'll be here for a while,<em>something else</em>,0,<p><img src="../proexpec/q/q_b_120.jpg" class="scaled-img" /></p><p style="font-size: 22px">How likely do you think it is that the man will respond with each of the following sentences? <br>Make sure that your responses sum up to 100.</p>,,171264,32,html-multi-slider-response,,120
129,30_bit,0.0-33.0,,0,100,0,2847,I'll be here for a bit,I'll be here for a while,<em>something else</em>,0,<p><img src="../proexpec/q/q_b_20.jpg" class="scaled-img" /></p><p style="font-size: 22px">How likely do you think it is that the man will respond with each of the following sentences? <br>Make sure that your responses sum up to 100.</p>,,174362,33,html-multi-slider-response,,20
129,30_bit,0.0-34.0,,0,99,0,2763,I'll be here for a bit,I'll be here for a while,<em>something else</em>,0,<p><img src="../proexpec/q/q_b_45.jpg" class="scaled-img" /></p><p style="font-size: 22px">How likely do you think it is that the man will respond with each of the following sentences? <br>Make sure that your responses sum up to 100.</p>,,177377,34,html-multi-slider-response,,45
129,30_bit,0.0-35.0,,0,100,0,2808,I'll be here for a bit,I'll be here for a while,<em>something else</em>,0,<p><img src="../proexpec/q/q_b_30.jpg" class="scaled-img" /></p><p style="font-size: 22px">How likely do you think it is that the man will respond with each of the following sentences? <br>Make sure that your responses sum up to 100.</p>,,180437,35,html-multi-slider-response,,30
129,30_bit,0.0-36.0,,0,100,0,2776,I'll be here for a bit,I'll be here for a while,<em>something else</em>,0,<p><img src="../proexpec/q/q_b_90.jpg" class="scaled-img" /></p><p style="font-size: 22px">How likely do you think it is that the man will respond with each of the following sentences? <br>Make sure that your responses sum up to 100.</p>,,183465,36,html-multi-slider-response,,90
129,30_bit,0.0-37.0,,100,0,0,3061,I'll be here for a bit,I'll be here for a while,<em>something else</em>,0,<p><img src="../proexpec/q/q_b_10.jpg" class="scaled-img" /></p><p style="font-size: 22px">How likely do you think it is that the man will respond with each of the following sentences? <br>Make sure that your responses sum up to 100.</p>,,186777,37,html-multi-slider-response,,10
129,30_bit,0.0-38.0,,0,100,0,2977,I'll be here for a bit,I'll be here for a while,<em>something else</em>,0,<p><img src="../proexpec/q/q_b_30.jpg" class="scaled-img" /></p><p style="font-size: 22px">How likely do you think it is that the man will respond with each of the following sentences? <br>Make sure that your responses sum up to 100.</p>,,190005,38,html-multi-slider-response,,30
129,30_bit,0.0-39.0,,0,100,0,2216,I'll be here for a bit,I'll be here for a while,<em>something else</em>,0,<p><img src="../proexpec/q/q_b_20.jpg" class="scaled-img" /></p><p style="font-size: 22px">How likely do you think it is that the man will respond with each of the following sentences? <br>Make sure that your responses sum up to 100.</p>,,192473,39,html-multi-slider-response,,20
131,30_bit,0.0-22.0,,90,6,4,38943,I'll be here for a bit,I'll be here for a while,<em>something else</em>,0,<p><img src="../proexpec/q/q_b_10.jpg" class="scaled-img" /></p><p style="font-size: 22px">How likely do you think it is that the man will respond with each of the following sentences? <br>Make sure that your responses sum up to 100.</p>,,214181,22,html-multi-slider-response,,10
131,30_bit,0.0-23.0,,0,100,0,7791,I'll be here for a bit,I'll be here for a while,<em>something else</em>,0,<p><img src="../proexpec/q/q_b_90.jpg" class="scaled-img" /></p><p style="font-size: 22px">How likely do you think it is that the man will respond with each of the following sentences? <br>Make sure that your responses sum up to 100.</p>,,222230,23,html-multi-slider-response,,90
131,30_bit,0.0-24.0,,100,0,0,37751,I'll be here for a bit,I'll be here for a while,<em>something else</em>,0,<p><img src="../proexpec/q/q_b_5.jpg" class="scaled-img" /></p><p style="font-size: 22px">How likely do you think it is that the man will respond with each of the following sentences? <br>Make sure that your responses sum up to 100.</p>,,260250,24,html-multi-slider-response,,5
131,30_bit,0.0-25.0,,0,100,0,11353,I'll be here for a bit,I'll be here for a while,<em>something else</em>,0,<p><img src="../proexpec/q/q_b_60.jpg" class="scaled-img" /></p><p style="font-size: 22px">How likely do you think it is that the man will respond with each of the following sentences? <br>Make sure that your responses sum up to 100.</p>,,271868,25,html-multi-slider-response,,60
131,30_bit,0.0-26.0,,88,12,0,44691,I'll be here for a bit,I'll be here for a while,<em>something else</em>,0,<p><img src="../proexpec/q/q_b_30.jpg" class="scaled-img" /></p><p style="font-size: 22px">How likely do you think it is that the man will respond with each of the following sentences? <br>Make sure that your responses sum up to 100.</p>,,316817,26,html-multi-slider-response,,30
131,30_bit,0.0-27.0,,18,82,0,19145,I'll be here for a bit,I'll be here for a while,<em>something else</em>,0,<p><img src="../proexpec/q/q_b_45.jpg" class="scaled-img" /></p><p style="font-size: 22px">How likely do you think it is that the man will respond with each of the following sentences? <br>Make sure that your responses sum up to 100.</p>,,336231,27,html-multi-slider-response,,45
131,30_bit,0.0-28.0,,0,95,5,8708,I'll be here for a bit,I'll be here for a while,<em>something else</em>,0,<p><img src="../proexpec/q/q_b_60.jpg" class="scaled-img" /></p><p style="font-size: 22px">How likely do you think it is that the man will respond with each of the following sentences? <br>Make sure that your responses sum up to 100.</p>,,345208,28,html-multi-slider-response,,60
131,30_bit,0.0-29.0,,82,18,0,19950,I'll be here for a bit,I'll be here for a while,<em>something else</em>,0,<p><img src="../proexpec/q/q_b_20.jpg" class="scaled-img" /></p><p style="font-size: 22px">How likely do you think it is that the man will respond with each of the following sentences? <br>Make sure that your responses sum up to 100.</p>,,365421,29,html-multi-slider-response,,20
131,30_bit,0.0-30.0,,14,86,0,7603,I'll be here for a bit,I'll be here for a while,<em>something else</em>,0,<p><img src="../proexpec/q/q_b_45.jpg" class="scaled-img" /></p><p style="font-size: 22px">How likely do you think it is that the man will respond with each of the following sentences? <br>Make sure that your responses sum up to 100.</p>,,373285,30,html-multi-slider-response,,45
131,30_bit,0.0-31.0,,92,8,0,58601,I'll be here for a bit,I'll be here for a while,<em>something else</em>,0,<p><img src="../proexpec/q/q_b_15.jpg" class="scaled-img" /></p><p style="font-size: 22px">How likely do you think it is that the man will respond with each of the following sentences? <br>Make sure that your responses sum up to 100.</p>,,432152,31,html-multi-slider-response,,15
131,30_bit,0.0-32.0,,100,0,0,5465,I'll be here for a bit,I'll be here for a while,<em>something else</em>,0,<p><img src="../proexpec/q/q_b_30.jpg" class="scaled-img" /></p><p style="font-size: 22px">How likely do you think it is that the man will respond with each of the following sentences? <br>Make sure that your responses sum up to 100.</p>,,437872,32,html-multi-slider-response,,30
131,30_bit,0.0-33.0,,100,0,0,3913,I'll be here for a bit,I'll be here for a while,<em>something else</em>,0,<p><img src="../proexpec/q/q_b_15.jpg" class="scaled-img" /></p><p style="font-size: 22px">How likely do you think it is that the man will respond with each of the following sentences? <br>Make sure that your responses sum up to 100.</p>,,442045,33,html-multi-slider-response,,15
131,30_bit,0.0-34.0,,100,0,0,3760,I'll be here for a bit,I'll be here for a while,<em>something else</em>,0,<p><img src="../proexpec/q/q_b_5.jpg" class="scaled-img" /></p><p style="font-size: 22px">How likely do you think it is that the man will respond with each of the following sentences? <br>Make sure that your responses sum up to 100.</p>,,446071,34,html-multi-slider-response,,5
131,30_bit,0.0-35.0,,100,0,0,4016,I'll be here for a bit,I'll be here for a while,<em>something else</em>,0,<p><img src="../proexpec/q/q_b_20.jpg" class="scaled-img" /></p><p style="font-size: 22px">How likely do you think it is that the man will respond with each of the following sentences? <br>Make sure that your responses sum up to 100.</p>,,450345,35,html-multi-slider-response,,20
131,30_bit,0.0-36.0,,100,0,0,7003,I'll be here for a bit,I'll be here for a while,<em>something else</em>,0,<p><img src="../proexpec/q/q_b_10.jpg" class="scaled-img" /></p><p style="font-size: 22px">How likely do you think it is that the man will respond with each of the following sentences? <br>Make sure that your responses sum up to 100.</p>,,457605,36,html-multi-slider-response,,10
131,30_bit,0.0-37.0,,0,100,0,3736,I'll be here for a bit,I'll be here for a while,<em>something else</em>,0,<p><img src="../proexpec/q/q_b_90.jpg" class="scaled-img" /></p><p style="font-size: 22px">How likely do you think it is that the man will respond with each of the following sentences? <br>Make sure that your responses sum up to 100.</p>,,461596,37,html-multi-slider-response,,90
131,30_bit,0.0-38.0,,0,100,0,4952,I'll be here for a bit,I'll be here for a while,<em>something else</em>,0,<p><img src="../proexpec/q/q_b_120.jpg" class="scaled-img" /></p><p style="font-size: 22px">How likely do you think it is that the man will respond with each of the following sentences? <br>Make sure that your responses sum up to 100.</p>,,466803,38,html-multi-slider-response,,120
131,30_bit,0.0-39.0,,0,100,0,7225,I'll be here for a bit,I'll be here for a while,<em>something else</em>,0,<p><img src="../proexpec/q/q_b_120.jpg" class="scaled-img" /></p><p style="font-size: 22px">How likely do you think it is that the man will respond with each of the following sentences? <br>Make sure that your responses sum up to 100.</p>,,474282,39,html-multi-slider-response,,120
103,30_bit,0.0-22.0,,0,20,80,18593,I'll be here for a bit,I'll be here for a while,<em>something else</em>,0,<p><img src="../proexpec/q/q_b_60.jpg" class="scaled-img" /></p><p style="font-size: 22px">How likely do you think it is that the man will respond with each of the following sentences? <br>Make sure that your responses sum up to 100.</p>,,109364,22,html-multi-slider-response,,60
103,30_bit,0.0-23.0,,65,0,35,15762,I'll be here for a bit,I'll be here for a while,<em>something else</em>,0,<p><img src="../proexpec/q/q_b_20.jpg" class="scaled-img" /></p><p style="font-size: 22px">How likely do you think it is that the man will respond with each of the following sentences? <br>Make sure that your responses sum up to 100.</p>,,125380,23,html-multi-slider-response,,20
103,30_bit,0.0-24.0,,20,0,80,13661,I'll be here for a bit,I'll be here for a while,<em>something else</em>,0,<p><img src="../proexpec/q/q_b_10.jpg" class="scaled-img" /></p><p style="font-size: 22px">How likely do you think it is that the man will respond with each of the following sentences? <br>Make sure that your responses sum up to 100.</p>,,139297,24,html-multi-slider-response,,10
103,30_bit,0.0-25.0,,0,20,80,10846,I'll be here for a bit,I'll be here for a while,<em>something else</em>,0,<p><img src="../proexpec/q/q_b_60.jpg" class="scaled-img" /></p><p style="font-size: 22px">How likely do you think it is that the man will respond with each of the following sentences? <br>Make sure that your responses sum up to 100.</p>,,150396,25,html-multi-slider-response,,60
103,30_bit,0.0-26.0,,0,0,100,14014,I'll be here for a bit,I'll be here for a while,<em>something else</em>,0,<p><img src="../proexpec/q/q_b_5.jpg" class="scaled-img" /></p><p style="font-size: 22px">How likely do you think it is that the man will respond with each of the following sentences? <br>Make sure that your responses sum up to 100.</p>,,164664,26,html-multi-slider-response,,5
103,30_bit,0.0-27.0,,0,5,95,15764,I'll be here for a bit,I'll be here for a while,<em>something else</em>,0,<p><img src="../proexpec/q/q_b_120.jpg" class="scaled-img" /></p><p style="font-size: 22px">How likely do you think it is that the man will respond with each of the following sentences? <br>Make sure that your responses sum up to 100.</p>,,180680,27,html-multi-slider-response,,120
103,30_bit,0.0-28.0,,0,10,90,10764,I'll be here for a bit,I'll be here for a while,<em>something else</em>,0,<p><img src="../proexpec/q/q_b_90.jpg" class="scaled-img" /></p><p style="font-size: 22px">How likely do you think it is that the man will respond with each of the following sentences? <br>Make sure that your responses sum up to 100.</p>,,191698,28,html-multi-slider-response,,90
103,30_bit,0.0-29.0,,100,0,0,5945,I'll be here for a bit,I'll be here for a while,<em>something else</em>,0,<p><img src="../proexpec/q/q_b_30.jpg" class="scaled-img" /></p><p style="font-size: 22px">How likely do you think it is that the man will respond with each of the following sentences? <br>Make sure that your responses sum up to 100.</p>,,197897,29,html-multi-slider-response,,30
103,30_bit,0.0-30.0,,100,0,0,3649,I'll be here for a bit,I'll be here for a while,<em>something else</em>,0,<p><img src="../proexpec/q/q_b_30.jpg" class="scaled-img" /></p><p style="font-size: 22px">How likely do you think it is that the man will respond with each of the following sentences? <br>Make sure that your responses sum up to 100.</p>,,201799,30,html-multi-slider-response,,30
103,30_bit,0.0-31.0,,0,10,90,8227,I'll be here for a bit,I'll be here for a while,<em>something else</em>,0,<p><img src="../proexpec/q/q_b_90.jpg" class="scaled-img" /></p><p style="font-size: 22px">How likely do you think it is that the man will respond with each of the following sentences? <br>Make sure that your responses sum up to 100.</p>,,210280,31,html-multi-slider-response,,90
103,30_bit,0.0-32.0,,5,0,95,7148,I'll be here for a bit,I'll be here for a while,<em>something else</em>,0,<p><img src="../proexpec/q/q_b_10.jpg" class="scaled-img" /></p><p style="font-size: 22px">How likely do you think it is that the man will respond with each of the following sentences? <br>Make sure that your responses sum up to 100.</p>,,217681,32,html-multi-slider-response,,10
103,30_bit,0.0-33.0,,0,100,0,3978,I'll be here for a bit,I'll be here for a while,<em>something else</em>,0,<p><img src="../proexpec/q/q_b_45.jpg" class="scaled-img" /></p><p style="font-size: 22px">How likely do you think it is that the man will respond with each of the following sentences? <br>Make sure that your responses sum up to 100.</p>,,221913,33,html-multi-slider-response,,45
103,30_bit,0.0-34.0,,0,0,100,3497,I'll be here for a bit,I'll be here for a while,<em>something else</em>,0,<p><img src="../proexpec/q/q_b_5.jpg" class="scaled-img" /></p><p style="font-size: 22px">How likely do you think it is that the man will respond with each of the following sentences? <br>Make sure that your responses sum up to 100.</p>,,225663,34,html-multi-slider-response,,5
103,30_bit,0.0-35.0,,0,0,100,3896,I'll be here for a bit,I'll be here for a while,<em>something else</em>,0,<p><img src="../proexpec/q/q_b_120.jpg" class="scaled-img" /></p><p style="font-size: 22px">How likely do you think it is that the man will respond with each of the following sentences? <br>Make sure that your responses sum up to 100.</p>,,229814,35,html-multi-slider-response,,120
103,30_bit,0.0-36.0,,70,0,30,10396,I'll be here for a bit,I'll be here for a while,<em>something else</em>,0,<p><img src="../proexpec/q/q_b_20.jpg" class="scaled-img" /></p><p style="font-size: 22px">How likely do you think it is that the man will respond with each of the following sentences? <br>Make sure that your responses sum up to 100.</p>,,240463,36,html-multi-slider-response,,20
103,30_bit,0.0-37.0,,40,0,60,11698,I'll be here for a bit,I'll be here for a while,<em>something else</em>,0,<p><img src="../proexpec/q/q_b_15.jpg" class="scaled-img" /></p><p style="font-size: 22px">How likely do you think it is that the man will respond with each of the following sentences? <br>Make sure that your responses sum up to 100.</p>,,252414,37,html-multi-slider-response,,15
103,30_bit,0.0-38.0,,0,100,0,3030,I'll be here for a bit,I'll be here for a while,<em>something else</em>,0,<p><img src="../proexpec/q/q_b_45.jpg" class="scaled-img" /></p><p style="font-size: 22px">How likely do you think it is that the man will respond with each of the following sentences? <br>Make sure that your responses sum up to 100.</p>,,255697,38,html-multi-slider-response,,45
103,30_bit,0.0-39.0,,15,0,85,8630,I'll be here for a bit,I'll be here for a while,<em>something else</em>,0,<p><img src="../proexpec/q/q_b_15.jpg" class="scaled-img" /></p><p style="font-size: 22px">How likely do you think it is that the man will respond with each of the following sentences? <br>Make sure that your responses sum up to 100.</p>,,264580,39,html-multi-slider-response,,15
87,30_bit,0.0-22.0,,30,45,25,74863,I'll be here for a bit,I'll be here for a while,<em>something else</em>,0,<p><img src="../proexpec/q/q_b_120.jpg" class="scaled-img" /></p><p style="font-size: 22px">How likely do you think it is that the man will respond with each of the following sentences? <br>Make sure that your responses sum up to 100.</p>,,209747,22,html-multi-slider-response,,120
87,30_bit,0.0-23.0,,100,0,0,26239,I'll be here for a bit,I'll be here for a while,<em>something else</em>,0,<p><img src="../proexpec/q/q_b_10.jpg" class="scaled-img" /></p><p style="font-size: 22px">How likely do you think it is that the man will respond with each of the following sentences? <br>Make sure that your responses sum up to 100.</p>,,236251,23,html-multi-slider-response,,10
87,30_bit,0.0-24.0,,100,0,0,6727,I'll be here for a bit,I'll be here for a while,<em>something else</em>,0,<p><img src="../proexpec/q/q_b_30.jpg" class="scaled-img" /></p><p style="font-size: 22px">How likely do you think it is that the man will respond with each of the following sentences? <br>Make sure that your responses sum up to 100.</p>,,243231,24,html-multi-slider-response,,30
87,30_bit,0.0-25.0,,0,100,0,4323,I'll be here for a bit,I'll be here for a while,<em>something else</em>,0,<p><img src="../proexpec/q/q_b_60.jpg" class="scaled-img" /></p><p style="font-size: 22px">How likely do you think it is that the man will respond with each of the following sentences? <br>Make sure that your responses sum up to 100.</p>,,247806,25,html-multi-slider-response,,60
87,30_bit,0.0-26.0,,10,0,90,12763,I'll be here for a bit,I'll be here for a while,<em>something else</em>,0,<p><img src="../proexpec/q/q_b_5.jpg" class="scaled-img" /></p><p style="font-size: 22px">How likely do you think it is that the man will respond with each of the following sentences? <br>Make sure that your responses sum up to 100.</p>,,260835,26,html-multi-slider-response,,5
87,30_bit,0.0-27.0,,70,0,30,16357,I'll be here for a bit,I'll be here for a while,<em>something else</em>,0,<p><img src="../proexpec/q/q_b_15.jpg" class="scaled-img" /></p><p style="font-size: 22px">How likely do you think it is that the man will respond with each of the following sentences? <br>Make sure that your responses sum up to 100.</p>,,277443,27,html-multi-slider-response,,15
87,30_bit,0.0-28.0,,50,50,0,20612,I'll be here for a bit,I'll be here for a while,<em>something else</em>,0,<p><img src="../proexpec/q/q_b_20.jpg" class="scaled-img" /></p><p style="font-size: 22px">How likely do you think it is that the man will respond with each of the following sentences? <br>Make sure that your responses sum up to 100.</p>,,298307,28,html-multi-slider-response,,20
87,30_bit,0.0-29.0,,50,50,0,17180,I'll be here for a bit,I'll be here for a while,<em>something else</em>,0,<p><img src="../proexpec/q/q_b_20.jpg" class="scaled-img" /></p><p style="font-size: 22px">How likely do you think it is that the man will respond with each of the following sentences? <br>Make sure that your responses sum up to 100.</p>,,315739,29,html-multi-slider-response,,20
87,30_bit,0.0-30.0,,80,20,0,21378,I'll be here for a bit,I'll be here for a while,<em>something else</em>,0,<p><img src="../proexpec/q/q_b_15.jpg" class="scaled-img" /></p><p style="font-size: 22px">How likely do you think it is that the man will respond with each of the following sentences? <br>Make sure that your responses sum up to 100.</p>,,337384,30,html-multi-slider-response,,15
87,30_bit,0.0-31.0,,0,100,0,4576,I'll be here for a bit,I'll be here for a while,<em>something else</em>,0,<p><img src="../proexpec/q/q_b_45.jpg" class="scaled-img" /></p><p style="font-size: 22px">How likely do you think it is that the man will respond with each of the following sentences? <br>Make sure that your responses sum up to 100.</p>,,342220,31,html-multi-slider-response,,45
87,30_bit,0.0-32.0,,0,100,0,3286,I'll be here for a bit,I'll be here for a while,<em>something else</em>,0,<p><img src="../proexpec/q/q_b_90.jpg" class="scaled-img" /></p><p style="font-size: 22px">How likely do you think it is that the man will respond with each of the following sentences? <br>Make sure that your responses sum up to 100.</p>,,345758,32,html-multi-slider-response,,90
87,30_bit,0.0-33.0,,100,0,0,4796,I'll be here for a bit,I'll be here for a while,<em>something else</em>,0,<p><img src="../proexpec/q/q_b_10.jpg" class="scaled-img" /></p><p style="font-size: 22px">How likely do you think it is that the man will respond with each of the following sentences? <br>Make sure that your responses sum up to 100.</p>,,350816,33,html-multi-slider-response,,10
87,30_bit,0.0-34.0,,100,0,0,4091,I'll be here for a bit,I'll be here for a while,<em>something else</em>,0,<p><img src="../proexpec/q/q_b_5.jpg" class="scaled-img" /></p><p style="font-size: 22px">How likely do you think it is that the man will respond with each of the following sentences? <br>Make sure that your responses sum up to 100.</p>,,355172,34,html-multi-slider-response,,5
87,30_bit,0.0-35.0,,0,100,0,3368,I'll be here for a bit,I'll be here for a while,<em>something else</em>,0,<p><img src="../proexpec/q/q_b_30.jpg" class="scaled-img" /></p><p style="font-size: 22px">How likely do you think it is that the man will respond with each of the following sentences? <br>Make sure that your responses sum up to 100.</p>,,358805,35,html-multi-slider-response,,30
87,30_bit,0.0-36.0,,0,100,0,3546,I'll be here for a bit,I'll be here for a while,<em>something else</em>,0,<p><img src="../proexpec/q/q_b_45.jpg" class="scaled-img" /></p><p style="font-size: 22px">How likely do you think it is that the man will respond with each of the following sentences? <br>Make sure that your responses sum up to 100.</p>,,362609,36,html-multi-slider-response,,45
87,30_bit,0.0-37.0,,0,100,0,3975,I'll be here for a bit,I'll be here for a while,<em>something else</em>,0,<p><img src="../proexpec/q/q_b_60.jpg" class="scaled-img" /></p><p style="font-size: 22px">How likely do you think it is that the man will respond with each of the following sentences? <br>Make sure that your responses sum up to 100.</p>,,366848,37,html-multi-slider-response,,60
87,30_bit,0.0-38.0,,0,100,0,3964,I'll be here for a bit,I'll be here for a while,<em>something else</em>,0,<p><img src="../proexpec/q/q_b_120.jpg" class="scaled-img" /></p><p style="font-size: 22px">How likely do you think it is that the man will respond with each of the following sentences? <br>Make sure that your responses sum up to 100.</p>,,371075,38,html-multi-slider-response,,120
87,30_bit,0.0-39.0,,0,100,0,88733,I'll be here for a bit,I'll be here for a while,<em>something else</em>,0,<p><img src="../proexpec/q/q_b_90.jpg" class="scaled-img" /></p><p style="font-size: 22px">How likely do you think it is that the man will respond with each of the following sentences? <br>Make sure that your responses sum up to 100.</p>,,460072,39,html-multi-slider-response,,90
79,30_bit,0.0-22.0,,25,75,0,21011,I'll be here for a bit,I'll be here for a while,<em>something else</em>,0,<p><img src="../proexpec/q/q_b_90.jpg" class="scaled-img" /></p><p style="font-size: 22px">How likely do you think it is that the man will respond with each of the following sentences? <br>Make sure that your responses sum up to 100.</p>,,170899,22,html-multi-slider-response,,90
79,30_bit,0.0-23.0,,100,0,0,3485,I'll be here for a bit,I'll be here for a while,<em>something else</em>,0,<p><img src="../proexpec/q/q_b_5.jpg" class="scaled-img" /></p><p style="font-size: 22px">How likely do you think it is that the man will respond with each of the following sentences? <br>Make sure that your responses sum up to 100.</p>,,174642,23,html-multi-slider-response,,5
79,30_bit,0.0-24.0,,0,0,100,5015,I'll be here for a bit,I'll be here for a while,<em>something else</em>,0,<p><img src="../proexpec/q/q_b_30.jpg" class="scaled-img" /></p><p style="font-size: 22px">How likely do you think it is that the man will respond with each of the following sentences? <br>Make sure that your responses sum up to 100.</p>,,179919,24,html-multi-slider-response,,30
79,30_bit,0.0-25.0,,100,0,0,2941,I'll be here for a bit,I'll be here for a while,<em>something else</em>,0,<p><img src="../proexpec/q/q_b_5.jpg" class="scaled-img" /></p><p style="font-size: 22px">How likely do you think it is that the man will respond with each of the following sentences? <br>Make sure that your responses sum up to 100.</p>,,183119,25,html-multi-slider-response,,5
79,30_bit,0.0-26.0,,0,100,0,4442,I'll be here for a bit,I'll be here for a while,<em>something else</em>,0,<p><img src="../proexpec/q/q_b_45.jpg" class="scaled-img" /></p><p style="font-size: 22px">How likely do you think it is that the man will respond with each of the following sentences? <br>Make sure that your responses sum up to 100.</p>,,187823,26,html-multi-slider-response,,45
79,30_bit,0.0-27.0,,0,100,0,2680,I'll be here for a bit,I'll be here for a while,<em>something else</em>,0,<p><img src="../proexpec/q/q_b_90.jpg" class="scaled-img" /></p><p style="font-size: 22px">How likely do you think it is that the man will respond with each of the following sentences? <br>Make sure that your responses sum up to 100.</p>,,190767,27,html-multi-slider-response,,90
79,30_bit,0.0-28.0,,0,0,100,3955,I'll be here for a bit,I'll be here for a while,<em>something else</em>,0,<p><img src="../proexpec/q/q_b_60.jpg" class="scaled-img" /></p><p style="font-size: 22px">How likely do you think it is that the man will respond with each of the following sentences? <br>Make sure that your responses sum up to 100.</p>,,194974,28,html-multi-slider-response,,60
79,30_bit,0.0-29.0,,100,0,0,3233,I'll be here for a bit,I'll be here for a while,<em>something else</em>,0,<p><img src="../proexpec/q/q_b_10.jpg" class="scaled-img" /></p><p style="font-size: 22px">How likely do you think it is that the man will respond with each of the following sentences? <br>Make sure that your responses sum up to 100.</p>,,198463,29,html-multi-slider-response,,10
79,30_bit,0.0-30.0,,0,0,100,5221,I'll be here for a bit,I'll be here for a while,<em>something else</em>,0,<p><img src="../proexpec/q/q_b_20.jpg" class="scaled-img" /></p><p style="font-size: 22px">How likely do you think it is that the man will respond with each of the following sentences? <br>Make sure that your responses sum up to 100.</p>,,203950,30,html-multi-slider-response,,20
79,30_bit,0.0-31.0,,0,0,100,13032,I'll be here for a bit,I'll be here for a while,<em>something else</em>,0,<p><img src="../proexpec/q/q_b_20.jpg" class="scaled-img" /></p><p style="font-size: 22px">How likely do you think it is that the man will respond with each of the following sentences? <br>Make sure that your responses sum up to 100.</p>,,217239,31,html-multi-slider-response,,20
79,30_bit,0.0-32.0,,0,100,0,2850,I'll be here for a bit,I'll be here for a while,<em>something else</em>,0,<p><img src="../proexpec/q/q_b_60.jpg" class="scaled-img" /></p><p style="font-size: 22px">How likely do you think it is that the man will respond with each of the following sentences? <br>Make sure that your responses sum up to 100.</p>,,220351,32,html-multi-slider-response,,60
79,30_bit,0.0-33.0,,0,20,80,16504,I'll be here for a bit,I'll be here for a while,<em>something else</em>,0,<p><img src="../proexpec/q/q_b_120.jpg" class="scaled-img" /></p><p style="font-size: 22px">How likely do you think it is that the man will respond with each of the following sentences? <br>Make sure that your responses sum up to 100.</p>,,237108,33,html-multi-slider-response,,120
79,30_bit,0.0-34.0,,50,0,50,11183,I'll be here for a bit,I'll be here for a while,<em>something else</em>,0,<p><img src="../proexpec/q/q_b_15.jpg" class="scaled-img" /></p><p style="font-size: 22px">How likely do you think it is that the man will respond with each of the following sentences? <br>Make sure that your responses sum up to 100.</p>,,248548,34,html-multi-slider-response,,15
79,30_bit,0.0-35.0,,50,0,50,9087,I'll be here for a bit,I'll be here for a while,<em>something else</em>,0,<p><img src="../proexpec/q/q_b_15.jpg" class="scaled-img" /></p><p style="font-size: 22px">How likely do you think it is that the man will respond with each of the following sentences? <br>Make sure that your responses sum up to 100.</p>,,257888,35,html-multi-slider-response,,15
79,30_bit,0.0-36.0,,100,0,0,2527,I'll be here for a bit,I'll be here for a while,<em>something else</em>,0,<p><img src="../proexpec/q/q_b_10.jpg" class="scaled-img" /></p><p style="font-size: 22px">How likely do you think it is that the man will respond with each of the following sentences? <br>Make sure that your responses sum up to 100.</p>,,260680,36,html-multi-slider-response,,10
79,30_bit,0.0-37.0,,0,50,50,6434,I'll be here for a bit,I'll be here for a while,<em>something else</em>,0,<p><img src="../proexpec/q/q_b_45.jpg" class="scaled-img" /></p><p style="font-size: 22px">How likely do you think it is that the man will respond with each of the following sentences? <br>Make sure that your responses sum up to 100.</p>,,267376,37,html-multi-slider-response,,45
79,30_bit,0.0-38.0,,0,0,100,2559,I'll be here for a bit,I'll be here for a while,<em>something else</em>,0,<p><img src="../proexpec/q/q_b_120.jpg" class="scaled-img" /></p><p style="font-size: 22px">How likely do you think it is that the man will respond with each of the following sentences? <br>Make sure that your responses sum up to 100.</p>,,270189,38,html-multi-slider-response,,120
79,30_bit,0.0-39.0,,0,60,40,8481,I'll be here for a bit,I'll be here for a while,<em>something else</em>,0,<p><img src="../proexpec/q/q_b_30.jpg" class="scaled-img" /></p><p style="font-size: 22px">How likely do you think it is that the man will respond with each of the following sentences? <br>Make sure that your responses sum up to 100.</p>,,278928,39,html-multi-slider-response,,30
113,30_bit,0.0-22.0,,0,57,43,17881,I'll be here for a bit,I'll be here for a while,<em>something else</em>,0,<p><img src="../proexpec/q/q_b_90.jpg" class="scaled-img" /></p><p style="font-size: 22px">How likely do you think it is that the man will respond with each of the following sentences? <br>Make sure that your responses sum up to 100.</p>,,136477,22,html-multi-slider-response,,90
113,30_bit,0.0-23.0,,0,100,0,4350,I'll be here for a bit,I'll be here for a while,<em>something else</em>,0,<p><img src="../proexpec/q/q_b_45.jpg" class="scaled-img" /></p><p style="font-size: 22px">How likely do you think it is that the man will respond with each of the following sentences? <br>Make sure that your responses sum up to 100.</p>,,141086,23,html-multi-slider-response,,45
113,30_bit,0.0-24.0,,50,0,50,9592,I'll be here for a bit,I'll be here for a while,<em>something else</em>,0,<p><img src="../proexpec/q/q_b_15.jpg" class="scaled-img" /></p><p style="font-size: 22px">How likely do you think it is that the man will respond with each of the following sentences? <br>Make sure that your responses sum up to 100.</p>,,150931,24,html-multi-slider-response,,15
113,30_bit,0.0-25.0,,0,30,70,10198,I'll be here for a bit,I'll be here for a while,<em>something else</em>,0,<p><img src="../proexpec/q/q_b_60.jpg" class="scaled-img" /></p><p style="font-size: 22px">How likely do you think it is that the man will respond with each of the following sentences? <br>Make sure that your responses sum up to 100.</p>,,161388,25,html-multi-slider-response,,60
113,30_bit,0.0-26.0,,34,0,66,19469,I'll be here for a bit,I'll be here for a while,<em>something else</em>,0,<p><img src="../proexpec/q/q_b_20.jpg" class="scaled-img" /></p><p style="font-size: 22px">How likely do you think it is that the man will respond with each of the following sentences? <br>Make sure that your responses sum up to 100.</p>,,181111,26,html-multi-slider-response,,20
113,30_bit,0.0-27.0,,0,50,50,7520,I'll be here for a bit,I'll be here for a while,<em>something else</em>,0,<p><img src="../proexpec/q/q_b_90.jpg" class="scaled-img" /></p><p style="font-size: 22px">How likely do you think it is that the man will respond with each of the following sentences? <br>Make sure that your responses sum up to 100.</p>,,188887,27,html-multi-slider-response,,90
113,30_bit,0.0-28.0,,0,45,55,9990,I'll be here for a bit,I'll be here for a while,<em>something else</em>,0,<p><img src="../proexpec/q/q_b_30.jpg" class="scaled-img" /></p><p style="font-size: 22px">How likely do you think it is that the man will respond with each of the following sentences? <br>Make sure that your responses sum up to 100.</p>,,199145,28,html-multi-slider-response,,30
113,30_bit,0.0-29.0,,6,0,94,8418,I'll be here for a bit,I'll be here for a while,<em>something else</em>,0,<p><img src="../proexpec/q/q_b_5.jpg" class="scaled-img" /></p><p style="font-size: 22px">How likely do you think it is that the man will respond with each of the following sentences? <br>Make sure that your responses sum up to 100.</p>,,207821,29,html-multi-slider-response,,5
113,30_bit,0.0-30.0,,50,50,0,11404,I'll be here for a bit,I'll be here for a while,<em>something else</em>,0,<p><img src="../proexpec/q/q_b_30.jpg" class="scaled-img" /></p><p style="font-size: 22px">How likely do you think it is that the man will respond with each of the following sentences? <br>Make sure that your responses sum up to 100.</p>,,219480,30,html-multi-slider-response,,30
113,30_bit,0.0-31.0,,20,0,80,5596,I'll be here for a bit,I'll be here for a while,<em>something else</em>,0,<p><img src="../proexpec/q/q_b_10.jpg" class="scaled-img" /></p><p style="font-size: 22px">How likely do you think it is that the man will respond with each of the following sentences? <br>Make sure that your responses sum up to 100.</p>,,225341,31,html-multi-slider-response,,10
113,30_bit,0.0-32.0,,33,0,67,7829,I'll be here for a bit,I'll be here for a while,<em>something else</em>,0,<p><img src="../proexpec/q/q_b_15.jpg" class="scaled-img" /></p><p style="font-size: 22px">How likely do you think it is that the man will respond with each of the following sentences? <br>Make sure that your responses sum up to 100.</p>,,233438,32,html-multi-slider-response,,15
113,30_bit,0.0-33.0,,22,0,78,9389,I'll be here for a bit,I'll be here for a while,<em>something else</em>,0,<p><img src="../proexpec/q/q_b_20.jpg" class="scaled-img" /></p><p style="font-size: 22px">How likely do you think it is that the man will respond with each of the following sentences? <br>Make sure that your responses sum up to 100.</p>,,243087,33,html-multi-slider-response,,20
113,30_bit,0.0-34.0,,0,46,54,9121,I'll be here for a bit,I'll be here for a while,<em>something else</em>,0,<p><img src="../proexpec/q/q_b_60.jpg" class="scaled-img" /></p><p style="font-size: 22px">How likely do you think it is that the man will respond with each of the following sentences? <br>Make sure that your responses sum up to 100.</p>,,252463,34,html-multi-slider-response,,60
113,30_bit,0.0-35.0,,8,0,92,5814,I'll be here for a bit,I'll be here for a while,<em>something else</em>,0,<p><img src="../proexpec/q/q_b_5.jpg" class="scaled-img" /></p><p style="font-size: 22px">How likely do you think it is that the man will respond with each of the following sentences? <br>Make sure that your responses sum up to 100.</p>,,258536,35,html-multi-slider-response,,5
113,30_bit,0.0-36.0,,0,20,80,9612,I'll be here for a bit,I'll be here for a while,<em>something else</em>,0,<p><img src="../proexpec/q/q_b_120.jpg" class="scaled-img" /></p><p style="font-size: 22px">How likely do you think it is that the man will respond with each of the following sentences? <br>Make sure that your responses sum up to 100.</p>,,268402,36,html-multi-slider-response,,120
113,30_bit,0.0-37.0,,0,10,90,8717,I'll be here for a bit,I'll be here for a while,<em>something else</em>,0,<p><img src="../proexpec/q/q_b_120.jpg" class="scaled-img" /></p><p style="font-size: 22px">How likely do you think it is that the man will respond with each of the following sentences? <br>Make sure that your responses sum up to 100.</p>,,277379,37,html-multi-slider-response,,120
113,30_bit,0.0-38.0,,20,0,80,9401,I'll be here for a bit,I'll be here for a while,<em>something else</em>,0,<p><img src="../proexpec/q/q_b_10.jpg" class="scaled-img" /></p><p style="font-size: 22px">How likely do you think it is that the man will respond with each of the following sentences? <br>Make sure that your responses sum up to 100.</p>,,287035,38,html-multi-slider-response,,10
113,30_bit,0.0-39.0,,0,80,20,20294,I'll be here for a bit,I'll be here for a while,<em>something else</em>,0,<p><img src="../proexpec/q/q_b_45.jpg" class="scaled-img" /></p><p style="font-size: 22px">How likely do you think it is that the man will respond with each of the following sentences? <br>Make sure that your responses sum up to 100.</p>,,307591,39,html-multi-slider-response,,45
99,30_bit,0.0-22.0,,0,0,100,8689,I'll be here for a bit,I'll be here for a while,<em>something else</em>,0,<p><img src="../proexpec/q/q_b_90.jpg" class="scaled-img" /></p><p style="font-size: 22px">How likely do you think it is that the man will respond with each of the following sentences? <br>Make sure that your responses sum up to 100.</p>,,167647,22,html-multi-slider-response,,90
99,30_bit,0.0-23.0,,100,0,0,9363,I'll be here for a bit,I'll be here for a while,<em>something else</em>,0,<p><img src="../proexpec/q/q_b_20.jpg" class="scaled-img" /></p><p style="font-size: 22px">How likely do you think it is that the man will respond with each of the following sentences? <br>Make sure that your responses sum up to 100.</p>,,177275,23,html-multi-slider-response,,20
99,30_bit,0.0-24.0,,0,0,100,5924,I'll be here for a bit,I'll be here for a while,<em>something else</em>,0,<p><img src="../proexpec/q/q_b_5.jpg" class="scaled-img" /></p><p style="font-size: 22px">How likely do you think it is that the man will respond with each of the following sentences? <br>Make sure that your responses sum up to 100.</p>,,183457,24,html-multi-slider-response,,5
99,30_bit,0.0-25.0,,0,0,100,5767,I'll be here for a bit,I'll be here for a while,<em>something else</em>,0,<p><img src="../proexpec/q/q_b_5.jpg" class="scaled-img" /></p><p style="font-size: 22px">How likely do you think it is that the man will respond with each of the following sentences? <br>Make sure that your responses sum up to 100.</p>,,189477,25,html-multi-slider-response,,5
99,30_bit,0.0-26.0,,0,0,100,3968,I'll be here for a bit,I'll be here for a while,<em>something else</em>,0,<p><img src="../proexpec/q/q_b_90.jpg" class="scaled-img" /></p><p style="font-size: 22px">How likely do you think it is that the man will respond with each of the following sentences? <br>Make sure that your responses sum up to 100.</p>,,193711,26,html-multi-slider-response,,90
99,30_bit,0.0-27.0,,100,0,0,6162,I'll be here for a bit,I'll be here for a while,<em>something else</em>,0,<p><img src="../proexpec/q/q_b_30.jpg" class="scaled-img" /></p><p style="font-size: 22px">How likely do you think it is that the man will respond with each of the following sentences? <br>Make sure that your responses sum up to 100.</p>,,200137,27,html-multi-slider-response,,30
99,30_bit,0.0-28.0,,0,0,100,2831,I'll be here for a bit,I'll be here for a while,<em>something else</em>,0,<p><img src="../proexpec/q/q_b_120.jpg" class="scaled-img" /></p><p style="font-size: 22px">How likely do you think it is that the man will respond with each of the following sentences? <br>Make sure that your responses sum up to 100.</p>,,203226,28,html-multi-slider-response,,120
99,30_bit,0.0-29.0,,50,0,50,13098,I'll be here for a bit,I'll be here for a while,<em>something else</em>,0,<p><img src="../proexpec/q/q_b_15.jpg" class="scaled-img" /></p><p style="font-size: 22px">How likely do you think it is that the man will respond with each of the following sentences? <br>Make sure that your responses sum up to 100.</p>,,216576,29,html-multi-slider-response,,15
99,30_bit,0.0-30.0,,0,100,0,3013,I'll be here for a bit,I'll be here for a while,<em>something else</em>,0,<p><img src="../proexpec/q/q_b_45.jpg" class="scaled-img" /></p><p style="font-size: 22px">How likely do you think it is that the man will respond with each of the following sentences? <br>Make sure that your responses sum up to 100.</p>,,219844,30,html-multi-slider-response,,45
99,30_bit,0.0-31.0,,50,0,50,7005,I'll be here for a bit,I'll be here for a while,<em>something else</em>,0,<p><img src="../proexpec/q/q_b_15.jpg" class="scaled-img" /></p><p style="font-size: 22px">How likely do you think it is that the man will respond with each of the following sentences? <br>Make sure that your responses sum up to 100.</p>,,227102,31,html-multi-slider-response,,15
99,30_bit,0.0-32.0,,0,0,100,2970,I'll be here for a bit,I'll be here for a while,<em>something else</em>,0,<p><img src="../proexpec/q/q_b_10.jpg" class="scaled-img" /></p><p style="font-size: 22px">How likely do you think it is that the man will respond with each of the following sentences? <br>Make sure that your responses sum up to 100.</p>,,230323,32,html-multi-slider-response,,10
99,30_bit,0.0-33.0,,100,0,0,4962,I'll be here for a bit,I'll be here for a while,<em>something else</em>,0,<p><img src="../proexpec/q/q_b_20.jpg" class="scaled-img" /></p><p style="font-size: 22px">How likely do you think it is that the man will respond with each of the following sentences? <br>Make sure that your responses sum up to 100.</p>,,235536,33,html-multi-slider-response,,20
99,30_bit,0.0-34.0,,0,0,100,3040,I'll be here for a bit,I'll be here for a while,<em>something else</em>,0,<p><img src="../proexpec/q/q_b_60.jpg" class="scaled-img" /></p><p style="font-size: 22px">How likely do you think it is that the man will respond with each of the following sentences? <br>Make sure that your responses sum up to 100.</p>,,238830,34,html-multi-slider-response,,60
99,30_bit,0.0-35.0,,50,0,50,9237,I'll be here for a bit,I'll be here for a while,<em>something else</em>,0,<p><img src="../proexpec/q/q_b_10.jpg" class="scaled-img" /></p><p style="font-size: 22px">How likely do you think it is that the man will respond with each of the following sentences? <br>Make sure that your responses sum up to 100.</p>,,248318,35,html-multi-slider-response,,10
99,30_bit,0.0-36.0,,0,0,100,4122,I'll be here for a bit,I'll be here for a while,<em>something else</em>,0,<p><img src="../proexpec/q/q_b_60.jpg" class="scaled-img" /></p><p style="font-size: 22px">How likely do you think it is that the man will respond with each of the following sentences? <br>Make sure that your responses sum up to 100.</p>,,252693,36,html-multi-slider-response,,60
99,30_bit,0.0-37.0,,0,100,0,3173,I'll be here for a bit,I'll be here for a while,<em>something else</em>,0,<p><img src="../proexpec/q/q_b_45.jpg" class="scaled-img" /></p><p style="font-size: 22px">How likely do you think it is that the man will respond with each of the following sentences? <br>Make sure that your responses sum up to 100.</p>,,256118,37,html-multi-slider-response,,45
99,30_bit,0.0-38.0,,0,0,100,3398,I'll be here for a bit,I'll be here for a while,<em>something else</em>,0,<p><img src="../proexpec/q/q_b_120.jpg" class="scaled-img" /></p><p style="font-size: 22px">How likely do you think it is that the man will respond with each of the following sentences? <br>Make sure that your responses sum up to 100.</p>,,259767,38,html-multi-slider-response,,120
99,30_bit,0.0-39.0,,100,0,0,3125,I'll be here for a bit,I'll be here for a while,<em>something else</em>,0,<p><img src="../proexpec/q/q_b_30.jpg" class="scaled-img" /></p><p style="font-size: 22px">How likely do you think it is that the man will respond with each of the following sentences? <br>Make sure that your responses sum up to 100.</p>,,263146,39,html-multi-slider-response,,30
73,30_bit,0.0-22.0,,50,0,50,33811,I'll be here for a bit,I'll be here for a while,<em>something else</em>,0,<p><img src="../proexpec/q/q_b_10.jpg" class="scaled-img" /></p><p style="font-size: 22px">How likely do you think it is that the man will respond with each of the following sentences? <br>Make sure that your responses sum up to 100.</p>,,256474,22,html-multi-slider-response,,10
73,30_bit,0.0-23.0,,75,0,25,24510,I'll be here for a bit,I'll be here for a while,<em>something else</em>,0,<p><img src="../proexpec/q/q_b_15.jpg" class="scaled-img" /></p><p style="font-size: 22px">How likely do you think it is that the man will respond with each of the following sentences? <br>Make sure that your responses sum up to 100.</p>,,281241,23,html-multi-slider-response,,15
73,30_bit,0.0-24.0,,0,100,0,7490,I'll be here for a bit,I'll be here for a while,<em>something else</em>,0,<p><img src="../proexpec/q/q_b_120.jpg" class="scaled-img" /></p><p style="font-size: 22px">How likely do you think it is that the man will respond with each of the following sentences? <br>Make sure that your responses sum up to 100.</p>,,288985,24,html-multi-slider-response,,120
73,30_bit,0.0-25.0,,0,100,0,14348,I'll be here for a bit,I'll be here for a while,<em>something else</em>,0,<p><img src="../proexpec/q/q_b_90.jpg" class="scaled-img" /></p><p style="font-size: 22px">How likely do you think it is that the man will respond with each of the following sentences? <br>Make sure that your responses sum up to 100.</p>,,303601,25,html-multi-slider-response,,90
73,30_bit,0.0-26.0,,0,100,0,5524,I'll be here for a bit,I'll be here for a while,<em>something else</em>,0,<p><img src="../proexpec/q/q_b_45.jpg" class="scaled-img" /></p><p style="font-size: 22px">How likely do you think it is that the man will respond with each of the following sentences? <br>Make sure that your responses sum up to 100.</p>,,309396,26,html-multi-slider-response,,45
73,30_bit,0.0-27.0,,100,0,0,6850,I'll be here for a bit,I'll be here for a while,<em>something else</em>,0,<p><img src="../proexpec/q/q_b_20.jpg" class="scaled-img" /></p><p style="font-size: 22px">How likely do you think it is that the man will respond with each of the following sentences? <br>Make sure that your responses sum up to 100.</p>,,316500,27,html-multi-slider-response,,20
73,30_bit,0.0-28.0,,100,0,0,4143,I'll be here for a bit,I'll be here for a while,<em>something else</em>,0,<p><img src="../proexpec/q/q_b_10.jpg" class="scaled-img" /></p><p style="font-size: 22px">How likely do you think it is that the man will respond with each of the following sentences? <br>Make sure that your responses sum up to 100.</p>,,320908,28,html-multi-slider-response,,10
73,30_bit,0.0-29.0,,0,100,0,5099,I'll be here for a bit,I'll be here for a while,<em>something else</em>,0,<p><img src="../proexpec/q/q_b_60.jpg" class="scaled-img" /></p><p style="font-size: 22px">How likely do you think it is that the man will respond with each of the following sentences? <br>Make sure that your responses sum up to 100.</p>,,326276,29,html-multi-slider-response,,60
73,30_bit,0.0-30.0,,100,0,0,4876,I'll be here for a bit,I'll be here for a while,<em>something else</em>,0,<p><img src="../proexpec/q/q_b_15.jpg" class="scaled-img" /></p><p style="font-size: 22px">How likely do you think it is that the man will respond with each of the following sentences? <br>Make sure that your responses sum up to 100.</p>,,331419,30,html-multi-slider-response,,15
73,30_bit,0.0-31.0,,0,0,100,17822,I'll be here for a bit,I'll be here for a while,<em>something else</em>,0,<p><img src="../proexpec/q/q_b_5.jpg" class="scaled-img" /></p><p style="font-size: 22px">How likely do you think it is that the man will respond with each of the following sentences? <br>Make sure that your responses sum up to 100.</p>,,349500,31,html-multi-slider-response,,5
73,30_bit,0.0-32.0,,0,100,0,5317,I'll be here for a bit,I'll be here for a while,<em>something else</em>,0,<p><img src="../proexpec/q/q_b_90.jpg" class="scaled-img" /></p><p style="font-size: 22px">How likely do you think it is that the man will respond with each of the following sentences? <br>Make sure that your responses sum up to 100.</p>,,355076,32,html-multi-slider-response,,90
73,30_bit,0.0-33.0,,0,0,100,3902,I'll be here for a bit,I'll be here for a while,<em>something else</em>,0,<p><img src="../proexpec/q/q_b_5.jpg" class="scaled-img" /></p><p style="font-size: 22px">How likely do you think it is that the man will respond with each of the following sentences? <br>Make sure that your responses sum up to 100.</p>,,359244,33,html-multi-slider-response,,5
73,30_bit,0.0-34.0,,100,0,0,4654,I'll be here for a bit,I'll be here for a while,<em>something else</em>,0,<p><img src="../proexpec/q/q_b_30.jpg" class="scaled-img" /></p><p style="font-size: 22px">How likely do you think it is that the man will respond with each of the following sentences? <br>Make sure that your responses sum up to 100.</p>,,364156,34,html-multi-slider-response,,30
73,30_bit,0.0-35.0,,0,100,0,3802,I'll be here for a bit,I'll be here for a while,<em>something else</em>,0,<p><img src="../proexpec/q/q_b_60.jpg" class="scaled-img" /></p><p style="font-size: 22px">How likely do you think it is that the man will respond with each of the following sentences? <br>Make sure that your responses sum up to 100.</p>,,368215,35,html-multi-slider-response,,60
73,30_bit,0.0-36.0,,0,100,0,4448,I'll be here for a bit,I'll be here for a while,<em>something else</em>,0,<p><img src="../proexpec/q/q_b_120.jpg" class="scaled-img" /></p><p style="font-size: 22px">How likely do you think it is that the man will respond with each of the following sentences? <br>Make sure that your responses sum up to 100.</p>,,372919,36,html-multi-slider-response,,120
73,30_bit,0.0-37.0,,0,100,0,3321,I'll be here for a bit,I'll be here for a while,<em>something else</em>,0,<p><img src="../proexpec/q/q_b_45.jpg" class="scaled-img" /></p><p style="font-size: 22px">How likely do you think it is that the man will respond with each of the following sentences? <br>Make sure that your responses sum up to 100.</p>,,376495,37,html-multi-slider-response,,45
73,30_bit,0.0-38.0,,50,0,50,11066,I'll be here for a bit,I'll be here for a while,<em>something else</em>,0,<p><img src="../proexpec/q/q_b_20.jpg" class="scaled-img" /></p><p style="font-size: 22px">How likely do you think it is that the man will respond with each of the following sentences? <br>Make sure that your responses sum up to 100.</p>,,387823,38,html-multi-slider-response,,20
73,30_bit,0.0-39.0,,100,0,0,6599,I'll be here for a bit,I'll be here for a while,<em>something else</em>,0,<p><img src="../proexpec/q/q_b_30.jpg" class="scaled-img" /></p><p style="font-size: 22px">How likely do you think it is that the man will respond with each of the following sentences? <br>Make sure that your responses sum up to 100.</p>,,394679,39,html-multi-slider-response,,30
93,30_bit,0.0-22.0,,53,40,7,88587,I'll be here for a bit,I'll be here for a while,<em>something else</em>,0,<p><img src="../proexpec/q/q_b_15.jpg" class="scaled-img" /></p><p style="font-size: 22px">How likely do you think it is that the man will respond with each of the following sentences? <br>Make sure that your responses sum up to 100.</p>,,294517,22,html-multi-slider-response,,15
93,30_bit,0.0-23.0,,20,20,60,54677,I'll be here for a bit,I'll be here for a while,<em>something else</em>,0,<p><img src="../proexpec/q/q_b_20.jpg" class="scaled-img" /></p><p style="font-size: 22px">How likely do you think it is that the man will respond with each of the following sentences? <br>Make sure that your responses sum up to 100.</p>,,349450,23,html-multi-slider-response,,20
93,30_bit,0.0-24.0,,0,100,0,8880,I'll be here for a bit,I'll be here for a while,<em>something else</em>,0,<p><img src="../proexpec/q/q_b_120.jpg" class="scaled-img" /></p><p style="font-size: 22px">How likely do you think it is that the man will respond with each of the following sentences? <br>Make sure that your responses sum up to 100.</p>,,358584,24,html-multi-slider-response,,120
93,30_bit,0.0-25.0,,0,100,0,10255,I'll be here for a bit,I'll be here for a while,<em>something else</em>,0,<p><img src="../proexpec/q/q_b_90.jpg" class="scaled-img" /></p><p style="font-size: 22px">How likely do you think it is that the man will respond with each of the following sentences? <br>Make sure that your responses sum up to 100.</p>,,369093,25,html-multi-slider-response,,90
93,30_bit,0.0-26.0,,90,0,10,18384,I'll be here for a bit,I'll be here for a while,<em>something else</em>,0,<p><img src="../proexpec/q/q_b_15.jpg" class="scaled-img" /></p><p style="font-size: 22px">How likely do you think it is that the man will respond with each of the following sentences? <br>Make sure that your responses sum up to 100.</p>,,387732,26,html-multi-slider-response,,15
93,30_bit,0.0-27.0,,20,80,0,20849,I'll be here for a bit,I'll be here for a while,<em>something else</em>,0,<p><img src="../proexpec/q/q_b_120.jpg" class="scaled-img" /></p><p style="font-size: 22px">How likely do you think it is that the man will respond with each of the following sentences? <br>Make sure that your responses sum up to 100.</p>,,408835,27,html-multi-slider-response,,120
93,30_bit,0.0-28.0,,15,75,10,131715,I'll be here for a bit,I'll be here for a while,<em>something else</em>,0,<p><img src="../proexpec/q/q_b_45.jpg" class="scaled-img" /></p><p style="font-size: 22px">How likely do you think it is that the man will respond with each of the following sentences? <br>Make sure that your responses sum up to 100.</p>,,540805,28,html-multi-slider-response,,45
93,30_bit,0.0-29.0,,0,0,100,6492,I'll be here for a bit,I'll be here for a while,<em>something else</em>,0,<p><img src="../proexpec/q/q_b_5.jpg" class="scaled-img" /></p><p style="font-size: 22px">How likely do you think it is that the man will respond with each of the following sentences? <br>Make sure that your responses sum up to 100.</p>,,547551,29,html-multi-slider-response,,5
93,30_bit,0.0-30.0,,80,20,0,18645,I'll be here for a bit,I'll be here for a while,<em>something else</em>,0,<p><img src="../proexpec/q/q_b_30.jpg" class="scaled-img" /></p><p style="font-size: 22px">How likely do you think it is that the man will respond with each of the following sentences? <br>Make sure that your responses sum up to 100.</p>,,566450,30,html-multi-slider-response,,30
93,30_bit,0.0-31.0,,0,100,0,7776,I'll be here for a bit,I'll be here for a while,<em>something else</em>,0,<p><img src="../proexpec/q/q_b_60.jpg" class="scaled-img" /></p><p style="font-size: 22px">How likely do you think it is that the man will respond with each of the following sentences? <br>Make sure that your responses sum up to 100.</p>,,574481,31,html-multi-slider-response,,60
93,30_bit,0.0-32.0,,0,0,100,5666,I'll be here for a bit,I'll be here for a while,<em>something else</em>,0,<p><img src="../proexpec/q/q_b_10.jpg" class="scaled-img" /></p><p style="font-size: 22px">How likely do you think it is that the man will respond with each of the following sentences? <br>Make sure that your responses sum up to 100.</p>,,580402,32,html-multi-slider-response,,10
93,30_bit,0.0-33.0,,50,50,0,15552,I'll be here for a bit,I'll be here for a while,<em>something else</em>,0,<p><img src="../proexpec/q/q_b_90.jpg" class="scaled-img" /></p><p style="font-size: 22px">How likely do you think it is that the man will respond with each of the following sentences? <br>Make sure that your responses sum up to 100.</p>,,596209,33,html-multi-slider-response,,90
93,30_bit,0.0-34.0,,20,80,0,16889,I'll be here for a bit,I'll be here for a while,<em>something else</em>,0,<p><img src="../proexpec/q/q_b_45.jpg" class="scaled-img" /></p><p style="font-size: 22px">How likely do you think it is that the man will respond with each of the following sentences? <br>Make sure that your responses sum up to 100.</p>,,613351,34,html-multi-slider-response,,45
93,30_bit,0.0-35.0,,0,0,100,6748,I'll be here for a bit,I'll be here for a while,<em>something else</em>,0,<p><img src="../proexpec/q/q_b_5.jpg" class="scaled-img" /></p><p style="font-size: 22px">How likely do you think it is that the man will respond with each of the following sentences? <br>Make sure that your responses sum up to 100.</p>,,620352,35,html-multi-slider-response,,5
93,30_bit,0.0-36.0,,0,0,100,7302,I'll be here for a bit,I'll be here for a while,<em>something else</em>,0,<p><img src="../proexpec/q/q_b_10.jpg" class="scaled-img" /></p><p style="font-size: 22px">How likely do you think it is that the man will respond with each of the following sentences? <br>Make sure that your responses sum up to 100.</p>,,627908,36,html-multi-slider-response,,10
93,30_bit,0.0-37.0,,100,0,0,13948,I'll be here for a bit,I'll be here for a while,<em>something else</em>,0,<p><img src="../proexpec/q/q_b_30.jpg" class="scaled-img" /></p><p style="font-size: 22px">How likely do you think it is that the man will respond with each of the following sentences? <br>Make sure that your responses sum up to 100.</p>,,642112,37,html-multi-slider-response,,30
93,30_bit,0.0-38.0,,0,0,100,4071,I'll be here for a bit,I'll be here for a while,<em>something else</em>,0,<p><img src="../proexpec/q/q_b_20.jpg" class="scaled-img" /></p><p style="font-size: 22px">How likely do you think it is that the man will respond with each of the following sentences? <br>Make sure that your responses sum up to 100.</p>,,646435,38,html-multi-slider-response,,20
93,30_bit,0.0-39.0,,0,100,0,3803,I'll be here for a bit,I'll be here for a while,<em>something else</em>,0,<p><img src="../proexpec/q/q_b_60.jpg" class="scaled-img" /></p><p style="font-size: 22px">How likely do you think it is that the man will respond with each of the following sentences? <br>Make sure that your responses sum up to 100.</p>,,650491,39,html-multi-slider-response,,60
83,30_bit,0.0-22.0,,30,0,70,29943,I'll be here for a bit,I'll be here for a while,<em>something else</em>,0,<p><img src="../proexpec/q/q_b_15.jpg" class="scaled-img" /></p><p style="font-size: 22px">How likely do you think it is that the man will respond with each of the following sentences? <br>Make sure that your responses sum up to 100.</p>,,154892,22,html-multi-slider-response,,15
83,30_bit,0.0-23.0,,100,0,0,6729,I'll be here for a bit,I'll be here for a while,<em>something else</em>,0,<p><img src="../proexpec/q/q_b_30.jpg" class="scaled-img" /></p><p style="font-size: 22px">How likely do you think it is that the man will respond with each of the following sentences? <br>Make sure that your responses sum up to 100.</p>,,161875,23,html-multi-slider-response,,30
83,30_bit,0.0-24.0,,0,40,60,15174,I'll be here for a bit,I'll be here for a while,<em>something else</em>,0,<p><img src="../proexpec/q/q_b_60.jpg" class="scaled-img" /></p><p style="font-size: 22px">How likely do you think it is that the man will respond with each of the following sentences? <br>Make sure that your responses sum up to 100.</p>,,177315,24,html-multi-slider-response,,60
83,30_bit,0.0-25.0,,20,0,80,11797,I'll be here for a bit,I'll be here for a while,<em>something else</em>,0,<p><img src="../proexpec/q/q_b_10.jpg" class="scaled-img" /></p><p style="font-size: 22px">How likely do you think it is that the man will respond with each of the following sentences? <br>Make sure that your responses sum up to 100.</p>,,189363,25,html-multi-slider-response,,10
83,30_bit,0.0-26.0,,0,100,0,4073,I'll be here for a bit,I'll be here for a while,<em>something else</em>,0,<p><img src="../proexpec/q/q_b_45.jpg" class="scaled-img" /></p><p style="font-size: 22px">How likely do you think it is that the man will respond with each of the following sentences? <br>Make sure that your responses sum up to 100.</p>,,193699,26,html-multi-slider-response,,45
83,30_bit,0.0-27.0,,0,37,63,7914,I'll be here for a bit,I'll be here for a while,<em>something else</em>,0,<p><img src="../proexpec/q/q_b_120.jpg" class="scaled-img" /></p><p style="font-size: 22px">How likely do you think it is that the man will respond with each of the following sentences? <br>Make sure that your responses sum up to 100.</p>,,201875,27,html-multi-slider-response,,120
83,30_bit,0.0-28.0,,24,0,76,5459,I'll be here for a bit,I'll be here for a while,<em>something else</em>,0,<p><img src="../proexpec/q/q_b_20.jpg" class="scaled-img" /></p><p style="font-size: 22px">How likely do you think it is that the man will respond with each of the following sentences? <br>Make sure that your responses sum up to 100.</p>,,207595,28,html-multi-slider-response,,20
83,30_bit,0.0-29.0,,0,30,70,11903,I'll be here for a bit,I'll be here for a while,<em>something else</em>,0,<p><img src="../proexpec/q/q_b_60.jpg" class="scaled-img" /></p><p style="font-size: 22px">How likely do you think it is that the man will respond with each of the following sentences? <br>Make sure that your responses sum up to 100.</p>,,219755,29,html-multi-slider-response,,60
83,30_bit,0.0-30.0,,25,0,75,8246,I'll be here for a bit,I'll be here for a while,<em>something else</em>,0,<p><img src="../proexpec/q/q_b_15.jpg" class="scaled-img" /></p><p style="font-size: 22px">How likely do you think it is that the man will respond with each of the following sentences? <br>Make sure that your responses sum up to 100.</p>,,228259,30,html-multi-slider-response,,15
83,30_bit,0.0-31.0,,0,100,0,2927,I'll be here for a bit,I'll be here for a while,<em>something else</em>,0,<p><img src="../proexpec/q/q_b_45.jpg" class="scaled-img" /></p><p style="font-size: 22px">How likely do you think it is that the man will respond with each of the following sentences? <br>Make sure that your responses sum up to 100.</p>,,231451,31,html-multi-slider-response,,45
83,30_bit,0.0-32.0,,0,26,74,9503,I'll be here for a bit,I'll be here for a while,<em>something else</em>,0,<p><img src="../proexpec/q/q_b_90.jpg" class="scaled-img" /></p><p style="font-size: 22px">How likely do you think it is that the man will respond with each of the following sentences? <br>Make sure that your responses sum up to 100.</p>,,241211,32,html-multi-slider-response,,90
83,30_bit,0.0-33.0,,26,0,74,6035,I'll be here for a bit,I'll be here for a while,<em>something else</em>,0,<p><img src="../proexpec/q/q_b_20.jpg" class="scaled-img" /></p><p style="font-size: 22px">How likely do you think it is that the man will respond with each of the following sentences? <br>Make sure that your responses sum up to 100.</p>,,247499,33,html-multi-slider-response,,20
83,30_bit,0.0-34.0,,0,29,71,4782,I'll be here for a bit,I'll be here for a while,<em>something else</em>,0,<p><img src="../proexpec/q/q_b_120.jpg" class="scaled-img" /></p><p style="font-size: 22px">How likely do you think it is that the man will respond with each of the following sentences? <br>Make sure that your responses sum up to 100.</p>,,252538,34,html-multi-slider-response,,120
83,30_bit,0.0-35.0,,27,0,73,12031,I'll be here for a bit,I'll be here for a while,<em>something else</em>,0,<p><img src="../proexpec/q/q_b_10.jpg" class="scaled-img" /></p><p style="font-size: 22px">How likely do you think it is that the man will respond with each of the following sentences? <br>Make sure that your responses sum up to 100.</p>,,264826,35,html-multi-slider-response,,10
83,30_bit,0.0-36.0,,100,0,0,4549,I'll be here for a bit,I'll be here for a while,<em>something else</em>,0,<p><img src="../proexpec/q/q_b_30.jpg" class="scaled-img" /></p><p style="font-size: 22px">How likely do you think it is that the man will respond with each of the following sentences? <br>Make sure that your responses sum up to 100.</p>,,269634,36,html-multi-slider-response,,30
83,30_bit,0.0-37.0,,17,0,83,7125,I'll be here for a bit,I'll be here for a while,<em>something else</em>,0,<p><img src="../proexpec/q/q_b_5.jpg" class="scaled-img" /></p><p style="font-size: 22px">How likely do you think it is that the man will respond with each of the following sentences? <br>Make sure that your responses sum up to 100.</p>,,277019,37,html-multi-slider-response,,5
83,30_bit,0.0-38.0,,0,22,78,3860,I'll be here for a bit,I'll be here for a while,<em>something else</em>,0,<p><img src="../proexpec/q/q_b_90.jpg" class="scaled-img" /></p><p style="font-size: 22px">How likely do you think it is that the man will respond with each of the following sentences? <br>Make sure that your responses sum up to 100.</p>,,281130,38,html-multi-slider-response,,90
83,30_bit,0.0-39.0,,14,0,86,4482,I'll be here for a bit,I'll be here for a while,<em>something else</em>,0,<p><img src="../proexpec/q/q_b_5.jpg" class="scaled-img" /></p><p style="font-size: 22px">How likely do you think it is that the man will respond with each of the following sentences? <br>Make sure that your responses sum up to 100.</p>,,285874,39,html-multi-slider-response,,5
75,30_bit,0.0-22.0,,0,100,0,15139,I'll be here for a bit,I'll be here for a while,<em>something else</em>,0,<p><img src="../proexpec/q/q_b_120.jpg" class="scaled-img" /></p><p style="font-size: 22px">How likely do you think it is that the man will respond with each of the following sentences? <br>Make sure that your responses sum up to 100.</p>,,179073,22,html-multi-slider-response,,120
75,30_bit,0.0-23.0,,0,100,0,10923,I'll be here for a bit,I'll be here for a while,<em>something else</em>,0,<p><img src="../proexpec/q/q_b_120.jpg" class="scaled-img" /></p><p style="font-size: 22px">How likely do you think it is that the man will respond with each of the following sentences? <br>Make sure that your responses sum up to 100.</p>,,190257,23,html-multi-slider-response,,120
75,30_bit,0.0-24.0,,100,0,0,8220,I'll be here for a bit,I'll be here for a while,<em>something else</em>,0,<p><img src="../proexpec/q/q_b_20.jpg" class="scaled-img" /></p><p style="font-size: 22px">How likely do you think it is that the man will respond with each of the following sentences? <br>Make sure that your responses sum up to 100.</p>,,198733,24,html-multi-slider-response,,20
75,30_bit,0.0-25.0,,0,100,0,12320,I'll be here for a bit,I'll be here for a while,<em>something else</em>,0,<p><img src="../proexpec/q/q_b_45.jpg" class="scaled-img" /></p><p style="font-size: 22px">How likely do you think it is that the man will respond with each of the following sentences? <br>Make sure that your responses sum up to 100.</p>,,211313,25,html-multi-slider-response,,45
75,30_bit,0.0-26.0,,0,100,0,10950,I'll be here for a bit,I'll be here for a while,<em>something else</em>,0,<p><img src="../proexpec/q/q_b_90.jpg" class="scaled-img" /></p><p style="font-size: 22px">How likely do you think it is that the man will respond with each of the following sentences? <br>Make sure that your responses sum up to 100.</p>,,222543,26,html-multi-slider-response,,90
75,30_bit,0.0-27.0,,0,100,0,5609,I'll be here for a bit,I'll be here for a while,<em>something else</em>,0,<p><img src="../proexpec/q/q_b_60.jpg" class="scaled-img" /></p><p style="font-size: 22px">How likely do you think it is that the man will respond with each of the following sentences? <br>Make sure that your responses sum up to 100.</p>,,228417,27,html-multi-slider-response,,60
75,30_bit,0.0-28.0,,0,100,0,6045,I'll be here for a bit,I'll be here for a while,<em>something else</em>,0,<p><img src="../proexpec/q/q_b_45.jpg" class="scaled-img" /></p><p style="font-size: 22px">How likely do you think it is that the man will respond with each of the following sentences? <br>Make sure that your responses sum up to 100.</p>,,234720,28,html-multi-slider-response,,45
75,30_bit,0.0-29.0,,100,0,0,7615,I'll be here for a bit,I'll be here for a while,<em>something else</em>,0,<p><img src="../proexpec/q/q_b_10.jpg" class="scaled-img" /></p><p style="font-size: 22px">How likely do you think it is that the man will respond with each of the following sentences? <br>Make sure that your responses sum up to 100.</p>,,242594,29,html-multi-slider-response,,10
75,30_bit,0.0-30.0,,100,0,0,8165,I'll be here for a bit,I'll be here for a while,<em>something else</em>,0,<p><img src="../proexpec/q/q_b_30.jpg" class="scaled-img" /></p><p style="font-size: 22px">How likely do you think it is that the man will respond with each of the following sentences? <br>Make sure that your responses sum up to 100.</p>,,251026,30,html-multi-slider-response,,30
75,30_bit,0.0-31.0,,100,0,0,6269,I'll be here for a bit,I'll be here for a while,<em>something else</em>,0,<p><img src="../proexpec/q/q_b_10.jpg" class="scaled-img" /></p><p style="font-size: 22px">How likely do you think it is that the man will respond with each of the following sentences? <br>Make sure that your responses sum up to 100.</p>,,257551,31,html-multi-slider-response,,10
75,30_bit,0.0-32.0,,0,0,100,8539,I'll be here for a bit,I'll be here for a while,<em>something else</em>,0,<p><img src="../proexpec/q/q_b_5.jpg" class="scaled-img" /></p><p style="font-size: 22px">How likely do you think it is that the man will respond with each of the following sentences? <br>Make sure that your responses sum up to 100.</p>,,266350,32,html-multi-slider-response,,5
75,30_bit,0.0-33.0,,0,0,100,6251,I'll be here for a bit,I'll be here for a while,<em>something else</em>,0,<p><img src="../proexpec/q/q_b_5.jpg" class="scaled-img" /></p><p style="font-size: 22px">How likely do you think it is that the man will respond with each of the following sentences? <br>Make sure that your responses sum up to 100.</p>,,272857,33,html-multi-slider-response,,5
75,30_bit,0.0-34.0,,0,100,0,9430,I'll be here for a bit,I'll be here for a while,<em>something else</em>,0,<p><img src="../proexpec/q/q_b_60.jpg" class="scaled-img" /></p><p style="font-size: 22px">How likely do you think it is that the man will respond with each of the following sentences? <br>Make sure that your responses sum up to 100.</p>,,282541,34,html-multi-slider-response,,60
75,30_bit,0.0-35.0,,100,0,0,8265,I'll be here for a bit,I'll be here for a while,<em>something else</em>,0,<p><img src="../proexpec/q/q_b_15.jpg" class="scaled-img" /></p><p style="font-size: 22px">How likely do you think it is that the man will respond with each of the following sentences? <br>Make sure that your responses sum up to 100.</p>,,291059,35,html-multi-slider-response,,15
75,30_bit,0.0-36.0,,100,0,0,15132,I'll be here for a bit,I'll be here for a while,<em>something else</em>,0,<p><img src="../proexpec/q/q_b_15.jpg" class="scaled-img" /></p><p style="font-size: 22px">How likely do you think it is that the man will respond with each of the following sentences? <br>Make sure that your responses sum up to 100.</p>,,306449,36,html-multi-slider-response,,15
75,30_bit,0.0-37.0,,0,100,0,5104,I'll be here for a bit,I'll be here for a while,<em>something else</em>,0,<p><img src="../proexpec/q/q_b_90.jpg" class="scaled-img" /></p><p style="font-size: 22px">How likely do you think it is that the man will respond with each of the following sentences? <br>Make sure that your responses sum up to 100.</p>,,311813,37,html-multi-slider-response,,90
75,30_bit,0.0-38.0,,100,0,0,5738,I'll be here for a bit,I'll be here for a while,<em>something else</em>,0,<p><img src="../proexpec/q/q_b_30.jpg" class="scaled-img" /></p><p style="font-size: 22px">How likely do you think it is that the man will respond with each of the following sentences? <br>Make sure that your responses sum up to 100.</p>,,317814,38,html-multi-slider-response,,30
75,30_bit,0.0-39.0,,100,0,0,6088,I'll be here for a bit,I'll be here for a while,<em>something else</em>,0,<p><img src="../proexpec/q/q_b_20.jpg" class="scaled-img" /></p><p style="font-size: 22px">How likely do you think it is that the man will respond with each of the following sentences? <br>Make sure that your responses sum up to 100.</p>,,324162,39,html-multi-slider-response,,20
81,30_bit,0.0-22.0,,33,33,33,63299,I'll be here for a bit,I'll be here for a while,<em>something else</em>,0,<p><img src="../proexpec/q/q_b_10.jpg" class="scaled-img" /></p><p style="font-size: 22px">How likely do you think it is that the man will respond with each of the following sentences? <br>Make sure that your responses sum up to 100.</p>,,227365,22,html-multi-slider-response,,10
81,30_bit,0.0-23.0,,2,48,50,24391,I'll be here for a bit,I'll be here for a while,<em>something else</em>,0,<p><img src="../proexpec/q/q_b_45.jpg" class="scaled-img" /></p><p style="font-size: 22px">How likely do you think it is that the man will respond with each of the following sentences? <br>Make sure that your responses sum up to 100.</p>,,252009,23,html-multi-slider-response,,45
81,30_bit,0.0-24.0,,47,44,9,13351,I'll be here for a bit,I'll be here for a while,<em>something else</em>,0,<p><img src="../proexpec/q/q_b_15.jpg" class="scaled-img" /></p><p style="font-size: 22px">How likely do you think it is that the man will respond with each of the following sentences? <br>Make sure that your responses sum up to 100.</p>,,265625,24,html-multi-slider-response,,15
81,30_bit,0.0-25.0,,20,50,30,24412,I'll be here for a bit,I'll be here for a while,<em>something else</em>,0,<p><img src="../proexpec/q/q_b_20.jpg" class="scaled-img" /></p><p style="font-size: 22px">How likely do you think it is that the man will respond with each of the following sentences? <br>Make sure that your responses sum up to 100.</p>,,290291,25,html-multi-slider-response,,20
81,30_bit,0.0-26.0,,0,50,50,16114,I'll be here for a bit,I'll be here for a while,<em>something else</em>,0,<p><img src="../proexpec/q/q_b_120.jpg" class="scaled-img" /></p><p style="font-size: 22px">How likely do you think it is that the man will respond with each of the following sentences? <br>Make sure that your responses sum up to 100.</p>,,306667,26,html-multi-slider-response,,120
81,30_bit,0.0-27.0,,0,50,50,12511,I'll be here for a bit,I'll be here for a while,<em>something else</em>,0,<p><img src="../proexpec/q/q_b_90.jpg" class="scaled-img" /></p><p style="font-size: 22px">How likely do you think it is that the man will respond with each of the following sentences? <br>Make sure that your responses sum up to 100.</p>,,319435,27,html-multi-slider-response,,90
81,30_bit,0.0-28.0,,0,36,64,19828,I'll be here for a bit,I'll be here for a while,<em>something else</em>,0,<p><img src="../proexpec/q/q_b_120.jpg" class="scaled-img" /></p><p style="font-size: 22px">How likely do you think it is that the man will respond with each of the following sentences? <br>Make sure that your responses sum up to 100.</p>,,339529,28,html-multi-slider-response,,120
81,30_bit,0.0-29.0,,0,49,51,12588,I'll be here for a bit,I'll be here for a while,<em>something else</em>,0,<p><img src="../proexpec/q/q_b_90.jpg" class="scaled-img" /></p><p style="font-size: 22px">How likely do you think it is that the man will respond with each of the following sentences? <br>Make sure that your responses sum up to 100.</p>,,352375,29,html-multi-slider-response,,90
81,30_bit,0.0-30.0,,51,0,49,21988,I'll be here for a bit,I'll be here for a while,<em>something else</em>,0,<p><img src="../proexpec/q/q_b_5.jpg" class="scaled-img" /></p><p style="font-size: 22px">How likely do you think it is that the man will respond with each of the following sentences? <br>Make sure that your responses sum up to 100.</p>,,374627,30,html-multi-slider-response,,5
81,30_bit,0.0-31.0,,32,31,36,17258,I'll be here for a bit,I'll be here for a while,<em>something else</em>,0,<p><img src="../proexpec/q/q_b_15.jpg" class="scaled-img" /></p><p style="font-size: 22px">How likely do you think it is that the man will respond with each of the following sentences? <br>Make sure that your responses sum up to 100.</p>,,392139,31,html-multi-slider-response,,15
81,30_bit,0.0-32.0,,35,35,30,29301,I'll be here for a bit,I'll be here for a while,<em>something else</em>,0,<p><img src="../proexpec/q/q_b_10.jpg" class="scaled-img" /></p><p style="font-size: 22px">How likely do you think it is that the man will respond with each of the following sentences? <br>Make sure that your responses sum up to 100.</p>,,421697,32,html-multi-slider-response,,10
81,30_bit,0.0-33.0,,31,32,37,21625,I'll be here for a bit,I'll be here for a while,<em>something else</em>,0,<p><img src="../proexpec/q/q_b_20.jpg" class="scaled-img" /></p><p style="font-size: 22px">How likely do you think it is that the man will respond with each of the following sentences? <br>Make sure that your responses sum up to 100.</p>,,443585,33,html-multi-slider-response,,20
81,30_bit,0.0-34.0,,0,54,46,9947,I'll be here for a bit,I'll be here for a while,<em>something else</em>,0,<p><img src="../proexpec/q/q_b_45.jpg" class="scaled-img" /></p><p style="font-size: 22px">How likely do you think it is that the man will respond with each of the following sentences? <br>Make sure that your responses sum up to 100.</p>,,453797,34,html-multi-slider-response,,45
81,30_bit,0.0-35.0,,0,55,45,8450,I'll be here for a bit,I'll be here for a while,<em>something else</em>,0,<p><img src="../proexpec/q/q_b_60.jpg" class="scaled-img" /></p><p style="font-size: 22px">How likely do you think it is that the man will respond with each of the following sentences? <br>Make sure that your responses sum up to 100.</p>,,462503,35,html-multi-slider-response,,60
81,30_bit,0.0-36.0,,48,52,0,13368,I'll be here for a bit,I'll be here for a while,<em>something else</em>,0,<p><img src="../proexpec/q/q_b_5.jpg" class="scaled-img" /></p><p style="font-size: 22px">How likely do you think it is that the man will respond with each of the following sentences? <br>Make sure that your responses sum up to 100.</p>,,476125,36,html-multi-slider-response,,5
81,30_bit,0.0-37.0,,0,57,43,9848,I'll be here for a bit,I'll be here for a while,<em>something else</em>,0,<p><img src="../proexpec/q/q_b_30.jpg" class="scaled-img" /></p><p style="font-size: 22px">How likely do you think it is that the man will respond with each of the following sentences? <br>Make sure that your responses sum up to 100.</p>,,486227,37,html-multi-slider-response,,30
81,30_bit,0.0-38.0,,0,49,51,5619,I'll be here for a bit,I'll be here for a while,<em>something else</em>,0,<p><img src="../proexpec/q/q_b_30.jpg" class="scaled-img" /></p><p style="font-size: 22px">How likely do you think it is that the man will respond with each of the following sentences? <br>Make sure that your responses sum up to 100.</p>,,492101,38,html-multi-slider-response,,30
81,30_bit,0.0-39.0,,0,53,47,3962,I'll be here for a bit,I'll be here for a while,<em>something else</em>,0,<p><img src="../proexpec/q/q_b_60.jpg" class="scaled-img" /></p><p style="font-size: 22px">How likely do you think it is that the man will respond with each of the following sentences? <br>Make sure that your responses sum up to 100.</p>,,496327,39,html-multi-slider-response,,60
127,30_bit,0.0-22.0,,88,0,12,64836,I'll be here for a bit,I'll be here for a while,<em>something else</em>,0,<p><img src="../proexpec/q/q_b_10.jpg" class="scaled-img" /></p><p style="font-size: 22px">How likely do you think it is that the man will respond with each of the following sentences? <br>Make sure that your responses sum up to 100.</p>,,315843,22,html-multi-slider-response,,10
127,30_bit,0.0-23.0,,0,100,0,8938,I'll be here for a bit,I'll be here for a while,<em>something else</em>,0,<p><img src="../proexpec/q/q_b_120.jpg" class="scaled-img" /></p><p style="font-size: 22px">How likely do you think it is that the man will respond with each of the following sentences? <br>Make sure that your responses sum up to 100.</p>,,325042,23,html-multi-slider-response,,120
127,30_bit,0.0-24.0,,92,0,8,10456,I'll be here for a bit,I'll be here for a while,<em>something else</em>,0,<p><img src="../proexpec/q/q_b_15.jpg" class="scaled-img" /></p><p style="font-size: 22px">How likely do you think it is that the man will respond with each of the following sentences? <br>Make sure that your responses sum up to 100.</p>,,335754,24,html-multi-slider-response,,15
127,30_bit,0.0-25.0,,88,0,12,21760,I'll be here for a bit,I'll be here for a while,<em>something else</em>,0,<p><img src="../proexpec/q/q_b_5.jpg" class="scaled-img" /></p><p style="font-size: 22px">How likely do you think it is that the man will respond with each of the following sentences? <br>Make sure that your responses sum up to 100.</p>,,357778,25,html-multi-slider-response,,5
127,30_bit,0.0-26.0,,9,91,0,16429,I'll be here for a bit,I'll be here for a while,<em>something else</em>,0,<p><img src="../proexpec/q/q_b_60.jpg" class="scaled-img" /></p><p style="font-size: 22px">How likely do you think it is that the man will respond with each of the following sentences? <br>Make sure that your responses sum up to 100.</p>,,374466,26,html-multi-slider-response,,60
127,30_bit,0.0-27.0,,0,98,2,8138,I'll be here for a bit,I'll be here for a while,<em>something else</em>,0,<p><img src="../proexpec/q/q_b_45.jpg" class="scaled-img" /></p><p style="font-size: 22px">How likely do you think it is that the man will respond with each of the following sentences? <br>Make sure that your responses sum up to 100.</p>,,382858,27,html-multi-slider-response,,45
127,30_bit,0.0-28.0,,95,0,5,30832,I'll be here for a bit,I'll be here for a while,<em>something else</em>,0,<p><img src="../proexpec/q/q_b_20.jpg" class="scaled-img" /></p><p style="font-size: 22px">How likely do you think it is that the man will respond with each of the following sentences? <br>Make sure that your responses sum up to 100.</p>,,413946,28,html-multi-slider-response,,20
127,30_bit,0.0-29.0,,0,100,0,6564,I'll be here for a bit,I'll be here for a while,<em>something else</em>,0,<p><img src="../proexpec/q/q_b_90.jpg" class="scaled-img" /></p><p style="font-size: 22px">How likely do you think it is that the man will respond with each of the following sentences? <br>Make sure that your responses sum up to 100.</p>,,420770,29,html-multi-slider-response,,90
127,30_bit,0.0-30.0,,0,100,0,7684,I'll be here for a bit,I'll be here for a while,<em>something else</em>,0,<p><img src="../proexpec/q/q_b_120.jpg" class="scaled-img" /></p><p style="font-size: 22px">How likely do you think it is that the man will respond with each of the following sentences? <br>Make sure that your responses sum up to 100.</p>,,428716,30,html-multi-slider-response,,120
127,30_bit,0.0-31.0,,46,54,0,14911,I'll be here for a bit,I'll be here for a while,<em>something else</em>,0,<p><img src="../proexpec/q/q_b_60.jpg" class="scaled-img" /></p><p style="font-size: 22px">How likely do you think it is that the man will respond with each of the following sentences? <br>Make sure that your responses sum up to 100.</p>,,443881,31,html-multi-slider-response,,60
127,30_bit,0.0-32.0,,16,84,0,22154,I'll be here for a bit,I'll be here for a while,<em>something else</em>,0,<p><img src="../proexpec/q/q_b_45.jpg" class="scaled-img" /></p><p style="font-size: 22px">How likely do you think it is that the man will respond with each of the following sentences? <br>Make sure that your responses sum up to 100.</p>,,466290,32,html-multi-slider-response,,45
127,30_bit,0.0-33.0,,0,100,0,4387,I'll be here for a bit,I'll be here for a while,<em>something else</em>,0,<p><img src="../proexpec/q/q_b_90.jpg" class="scaled-img" /></p><p style="font-size: 22px">How likely do you think it is that the man will respond with each of the following sentences? <br>Make sure that your responses sum up to 100.</p>,,470937,33,html-multi-slider-response,,90
127,30_bit,0.0-34.0,,89,0,11,21242,I'll be here for a bit,I'll be here for a while,<em>something else</em>,0,<p><img src="../proexpec/q/q_b_20.jpg" class="scaled-img" /></p><p style="font-size: 22px">How likely do you think it is that the man will respond with each of the following sentences? <br>Make sure that your responses sum up to 100.</p>,,492432,34,html-multi-slider-response,,20
127,30_bit,0.0-35.0,,100,0,0,5757,I'll be here for a bit,I'll be here for a while,<em>something else</em>,0,<p><img src="../proexpec/q/q_b_10.jpg" class="scaled-img" /></p><p style="font-size: 22px">How likely do you think it is that the man will respond with each of the following sentences? <br>Make sure that your responses sum up to 100.</p>,,498456,35,html-multi-slider-response,,10
127,30_bit,0.0-36.0,,79,21,0,12897,I'll be here for a bit,I'll be here for a while,<em>something else</em>,0,<p><img src="../proexpec/q/q_b_30.jpg" class="scaled-img" /></p><p style="font-size: 22px">How likely do you think it is that the man will respond with each of the following sentences? <br>Make sure that your responses sum up to 100.</p>,,511608,36,html-multi-slider-response,,30
127,30_bit,0.0-37.0,,98,0,2,28166,I'll be here for a bit,I'll be here for a while,<em>something else</em>,0,<p><img src="../proexpec/q/q_b_5.jpg" class="scaled-img" /></p><p style="font-size: 22px">How likely do you think it is that the man will respond with each of the following sentences? <br>Make sure that your responses sum up to 100.</p>,,540032,37,html-multi-slider-response,,5
127,30_bit,0.0-38.0,,97,3,0,14254,I'll be here for a bit,I'll be here for a while,<em>something else</em>,0,<p><img src="../proexpec/q/q_b_30.jpg" class="scaled-img" /></p><p style="font-size: 22px">How likely do you think it is that the man will respond with each of the following sentences? <br>Make sure that your responses sum up to 100.</p>,,554549,38,html-multi-slider-response,,30
127,30_bit,0.0-39.0,,100,0,0,4993,I'll be here for a bit,I'll be here for a while,<em>something else</em>,0,<p><img src="../proexpec/q/q_b_15.jpg" class="scaled-img" /></p><p style="font-size: 22px">How likely do you think it is that the man will respond with each of the following sentences? <br>Make sure that your responses sum up to 100.</p>,,559796,39,html-multi-slider-response,,15
107,30_bit,0.0-22.0,,10,20,70,126514,I'll be here for a bit,I'll be here for a while,<em>something else</em>,0,<p><img src="../proexpec/q/q_b_120.jpg" class="scaled-img" /></p><p style="font-size: 22px">How likely do you think it is that the man will respond with each of the following sentences? <br>Make sure that your responses sum up to 100.</p>,,309771,22,html-multi-slider-response,,120
107,30_bit,0.0-23.0,,20,70,10,44724,I'll be here for a bit,I'll be here for a while,<em>something else</em>,0,<p><img src="../proexpec/q/q_b_60.jpg" class="scaled-img" /></p><p style="font-size: 22px">How likely do you think it is that the man will respond with each of the following sentences? <br>Make sure that your responses sum up to 100.</p>,,354749,23,html-multi-slider-response,,60
107,30_bit,0.0-24.0,,95,5,0,24857,I'll be here for a bit,I'll be here for a while,<em>something else</em>,0,<p><img src="../proexpec/q/q_b_10.jpg" class="scaled-img" /></p><p style="font-size: 22px">How likely do you think it is that the man will respond with each of the following sentences? <br>Make sure that your responses sum up to 100.</p>,,379858,24,html-multi-slider-response,,10
107,30_bit,0.0-25.0,,90,10,0,21123,I'll be here for a bit,I'll be here for a while,<em>something else</em>,0,<p><img src="../proexpec/q/q_b_30.jpg" class="scaled-img" /></p><p style="font-size: 22px">How likely do you think it is that the man will respond with each of the following sentences? <br>Make sure that your responses sum up to 100.</p>,,401234,25,html-multi-slider-response,,30
107,30_bit,0.0-26.0,,5,5,90,32236,I'll be here for a bit,I'll be here for a while,<em>something else</em>,0,<p><img src="../proexpec/q/q_b_10.jpg" class="scaled-img" /></p><p style="font-size: 22px">How likely do you think it is that the man will respond with each of the following sentences? <br>Make sure that your responses sum up to 100.</p>,,433724,26,html-multi-slider-response,,10
107,30_bit,0.0-27.0,,15,80,5,22786,I'll be here for a bit,I'll be here for a while,<em>something else</em>,0,<p><img src="../proexpec/q/q_b_60.jpg" class="scaled-img" /></p><p style="font-size: 22px">How likely do you think it is that the man will respond with each of the following sentences? <br>Make sure that your responses sum up to 100.</p>,,456764,27,html-multi-slider-response,,60
107,30_bit,0.0-28.0,,1,1,98,18513,I'll be here for a bit,I'll be here for a while,<em>something else</em>,0,<p><img src="../proexpec/q/q_b_5.jpg" class="scaled-img" /></p><p style="font-size: 22px">How likely do you think it is that the man will respond with each of the following sentences? <br>Make sure that your responses sum up to 100.</p>,,475530,28,html-multi-slider-response,,5
107,30_bit,0.0-29.0,,90,8,2,29571,I'll be here for a bit,I'll be here for a while,<em>something else</em>,0,<p><img src="../proexpec/q/q_b_20.jpg" class="scaled-img" /></p><p style="font-size: 22px">How likely do you think it is that the man will respond with each of the following sentences? <br>Make sure that your responses sum up to 100.</p>,,505354,29,html-multi-slider-response,,20
107,30_bit,0.0-30.0,,15,80,5,24173,I'll be here for a bit,I'll be here for a while,<em>something else</em>,0,<p><img src="../proexpec/q/q_b_30.jpg" class="scaled-img" /></p><p style="font-size: 22px">How likely do you think it is that the man will respond with each of the following sentences? <br>Make sure that your responses sum up to 100.</p>,,529780,30,html-multi-slider-response,,30
107,30_bit,0.0-31.0,,80,15,5,23562,I'll be here for a bit,I'll be here for a while,<em>something else</em>,0,<p><img src="../proexpec/q/q_b_20.jpg" class="scaled-img" /></p><p style="font-size: 22px">How likely do you think it is that the man will respond with each of the following sentences? <br>Make sure that your responses sum up to 100.</p>,,553594,31,html-multi-slider-response,,20
107,30_bit,0.0-32.0,,75,15,10,28996,I'll be here for a bit,I'll be here for a while,<em>something else</em>,0,<p><img src="../proexpec/q/q_b_15.jpg" class="scaled-img" /></p><p style="font-size: 22px">How likely do you think it is that the man will respond with each of the following sentences? <br>Make sure that your responses sum up to 100.</p>,,582844,32,html-multi-slider-response,,15
107,30_bit,0.0-33.0,,1,98,1,16071,I'll be here for a bit,I'll be here for a while,<em>something else</em>,0,<p><img src="../proexpec/q/q_b_45.jpg" class="scaled-img" /></p><p style="font-size: 22px">How likely do you think it is that the man will respond with each of the following sentences? <br>Make sure that your responses sum up to 100.</p>,,599169,33,html-multi-slider-response,,45
107,30_bit,0.0-34.0,,0,0,100,20739,I'll be here for a bit,I'll be here for a while,<em>something else</em>,0,<p><img src="../proexpec/q/q_b_5.jpg" class="scaled-img" /></p><p style="font-size: 22px">How likely do you think it is that the man will respond with each of the following sentences? <br>Make sure that your responses sum up to 100.</p>,,620161,34,html-multi-slider-response,,5
107,30_bit,0.0-35.0,,5,15,80,32994,I'll be here for a bit,I'll be here for a while,<em>something else</em>,0,<p><img src="../proexpec/q/q_b_90.jpg" class="scaled-img" /></p><p style="font-size: 22px">How likely do you think it is that the man will respond with each of the following sentences? <br>Make sure that your responses sum up to 100.</p>,,653406,35,html-multi-slider-response,,90
107,30_bit,0.0-36.0,,2,8,90,20637,I'll be here for a bit,I'll be here for a while,<em>something else</em>,0,<p><img src="../proexpec/q/q_b_120.jpg" class="scaled-img" /></p><p style="font-size: 22px">How likely do you think it is that the man will respond with each of the following sentences? <br>Make sure that your responses sum up to 100.</p>,,674297,36,html-multi-slider-response,,120
107,30_bit,0.0-37.0,,10,85,5,24384,I'll be here for a bit,I'll be here for a while,<em>something else</em>,0,<p><img src="../proexpec/q/q_b_90.jpg" class="scaled-img" /></p><p style="font-size: 22px">How likely do you think it is that the man will respond with each of the following sentences? <br>Make sure that your responses sum up to 100.</p>,,698935,37,html-multi-slider-response,,90
107,30_bit,0.0-38.0,,0,100,0,6958,I'll be here for a bit,I'll be here for a while,<em>something else</em>,0,<p><img src="../proexpec/q/q_b_45.jpg" class="scaled-img" /></p><p style="font-size: 22px">How likely do you think it is that the man will respond with each of the following sentences? <br>Make sure that your responses sum up to 100.</p>,,706146,38,html-multi-slider-response,,45
107,30_bit,0.0-39.0,,90,0,10,20390,I'll be here for a bit,I'll be here for a while,<em>something else</em>,0,<p><img src="../proexpec/q/q_b_15.jpg" class="scaled-img" /></p><p style="font-size: 22px">How likely do you think it is that the man will respond with each of the following sentences? <br>Make sure that your responses sum up to 100.</p>,,726790,39,html-multi-slider-response,,15
125,30_bit,0.0-22.0,,95,5,0,19947,I'll be here for a bit,I'll be here for a while,<em>something else</em>,0,<p><img src="../proexpec/q/q_b_15.jpg" class="scaled-img" /></p><p style="font-size: 22px">How likely do you think it is that the man will respond with each of the following sentences? <br>Make sure that your responses sum up to 100.</p>,,102811,22,html-multi-slider-response,,15
125,30_bit,0.0-23.0,,0,100,0,6081,I'll be here for a bit,I'll be here for a while,<em>something else</em>,0,<p><img src="../proexpec/q/q_b_45.jpg" class="scaled-img" /></p><p style="font-size: 22px">How likely do you think it is that the man will respond with each of the following sentences? <br>Make sure that your responses sum up to 100.</p>,,109154,23,html-multi-slider-response,,45
125,30_bit,0.0-24.0,,0,90,10,13539,I'll be here for a bit,I'll be here for a while,<em>something else</em>,0,<p><img src="../proexpec/q/q_b_120.jpg" class="scaled-img" /></p><p style="font-size: 22px">How likely do you think it is that the man will respond with each of the following sentences? <br>Make sure that your responses sum up to 100.</p>,,122962,24,html-multi-slider-response,,120
125,30_bit,0.0-25.0,,0,98,2,6043,I'll be here for a bit,I'll be here for a while,<em>something else</em>,0,<p><img src="../proexpec/q/q_b_60.jpg" class="scaled-img" /></p><p style="font-size: 22px">How likely do you think it is that the man will respond with each of the following sentences? <br>Make sure that your responses sum up to 100.</p>,,129275,25,html-multi-slider-response,,60
125,30_bit,0.0-26.0,,55,45,0,9949,I'll be here for a bit,I'll be here for a while,<em>something else</em>,0,<p><img src="../proexpec/q/q_b_30.jpg" class="scaled-img" /></p><p style="font-size: 22px">How likely do you think it is that the man will respond with each of the following sentences? <br>Make sure that your responses sum up to 100.</p>,,139492,26,html-multi-slider-response,,30
