workerid,proliferate.condition,internal_node_id,response,response_0,response_1,response_2,rt,slider_0,slider_1,slider_2,slider_start,stimulus,success,time_elapsed,trial_index,trial_type,error,time_value
100,30_while,0.0-22.0,,0,100,0,8678,I'll be here for a bit,I'll be here for a while,<em>something else</em>,0,"<p><img src=""../proexpec/q/q_b_30.jpg"" class=""scaled-img"" /></p><p style=""font-size: 22px"">How likely do you think it is that the man will respond with each of the following sentences? <br>Make sure that your responses sum up to 100.</p>",,137912,22,html-multi-slider-response,,30
100,30_while,0.0-23.0,,0,100,0,14723,I'll be here for a bit,I'll be here for a while,<em>something else</em>,0,"<p><img src=""../proexpec/q/q_b_60.jpg"" class=""scaled-img"" /></p><p style=""font-size: 22px"">How likely do you think it is that the man will respond with each of the following sentences? <br>Make sure that your responses sum up to 100.</p>",,152888,23,html-multi-slider-response,,60
100,30_while,0.0-24.0,,100,0,0,6414,I'll be here for a bit,I'll be here for a while,<em>something else</em>,0,"<p><img src=""../proexpec/q/q_b_10.jpg"" class=""scaled-img"" /></p><p style=""font-size: 22px"">How likely do you think it is that the man will respond with each of the following sentences? <br>Make sure that your responses sum up to 100.</p>",,159563,24,html-multi-slider-response,,10
100,30_while,0.0-25.0,,0,0,100,9016,I'll be here for a bit,I'll be here for a while,<em>something else</em>,0,"<p><img src=""../proexpec/q/q_b_45.jpg"" class=""scaled-img"" /></p><p style=""font-size: 22px"">How likely do you think it is that the man will respond with each of the following sentences? <br>Make sure that your responses sum up to 100.</p>",,168831,25,html-multi-slider-response,,45
100,30_while,0.0-26.0,,0,0,100,10513,I'll be here for a bit,I'll be here for a while,<em>something else</em>,0,"<p><img src=""../proexpec/q/q_b_90.jpg"" class=""scaled-img"" /></p><p style=""font-size: 22px"">How likely do you think it is that the man will respond with each of the following sentences? <br>Make sure that your responses sum up to 100.</p>",,179601,26,html-multi-slider-response,,90
100,30_while,0.0-27.0,,0,0,100,5709,I'll be here for a bit,I'll be here for a while,<em>something else</em>,0,"<p><img src=""../proexpec/q/q_b_45.jpg"" class=""scaled-img"" /></p><p style=""font-size: 22px"">How likely do you think it is that the man will respond with each of the following sentences? <br>Make sure that your responses sum up to 100.</p>",,185564,27,html-multi-slider-response,,45
100,30_while,0.0-28.0,,0,0,100,14041,I'll be here for a bit,I'll be here for a while,<em>something else</em>,0,"<p><img src=""../proexpec/q/q_b_5.jpg"" class=""scaled-img"" /></p><p style=""font-size: 22px"">How likely do you think it is that the man will respond with each of the following sentences? <br>Make sure that your responses sum up to 100.</p>",,199864,28,html-multi-slider-response,,5
100,30_while,0.0-29.0,,0,0,100,4785,I'll be here for a bit,I'll be here for a while,<em>something else</em>,0,"<p><img src=""../proexpec/q/q_b_120.jpg"" class=""scaled-img"" /></p><p style=""font-size: 22px"">How likely do you think it is that the man will respond with each of the following sentences? <br>Make sure that your responses sum up to 100.</p>",,204911,29,html-multi-slider-response,,120
100,30_while,0.0-30.0,,100,0,0,4341,I'll be here for a bit,I'll be here for a while,<em>something else</em>,0,"<p><img src=""../proexpec/q/q_b_15.jpg"" class=""scaled-img"" /></p><p style=""font-size: 22px"">How likely do you think it is that the man will respond with each of the following sentences? <br>Make sure that your responses sum up to 100.</p>",,209516,30,html-multi-slider-response,,15
100,30_while,0.0-31.0,,0,0,100,6049,I'll be here for a bit,I'll be here for a while,<em>something else</em>,0,"<p><img src=""../proexpec/q/q_b_120.jpg"" class=""scaled-img"" /></p><p style=""font-size: 22px"">How likely do you think it is that the man will respond with each of the following sentences? <br>Make sure that your responses sum up to 100.</p>",,215821,31,html-multi-slider-response,,120
100,30_while,0.0-32.0,,100,0,0,8152,I'll be here for a bit,I'll be here for a while,<em>something else</em>,0,"<p><img src=""../proexpec/q/q_b_20.jpg"" class=""scaled-img"" /></p><p style=""font-size: 22px"">How likely do you think it is that the man will respond with each of the following sentences? <br>Make sure that your responses sum up to 100.</p>",,224228,32,html-multi-slider-response,,20
100,30_while,0.0-33.0,,100,0,0,4305,I'll be here for a bit,I'll be here for a while,<em>something else</em>,0,"<p><img src=""../proexpec/q/q_b_20.jpg"" class=""scaled-img"" /></p><p style=""font-size: 22px"">How likely do you think it is that the man will respond with each of the following sentences? <br>Make sure that your responses sum up to 100.</p>",,228792,33,html-multi-slider-response,,20
100,30_while,0.0-34.0,,0,0,100,7318,I'll be here for a bit,I'll be here for a while,<em>something else</em>,0,"<p><img src=""../proexpec/q/q_b_10.jpg"" class=""scaled-img"" /></p><p style=""font-size: 22px"">How likely do you think it is that the man will respond with each of the following sentences? <br>Make sure that your responses sum up to 100.</p>",,236363,34,html-multi-slider-response,,10
100,30_while,0.0-35.0,,0,0,100,6864,I'll be here for a bit,I'll be here for a while,<em>something else</em>,0,"<p><img src=""../proexpec/q/q_b_5.jpg"" class=""scaled-img"" /></p><p style=""font-size: 22px"">How likely do you think it is that the man will respond with each of the following sentences? <br>Make sure that your responses sum up to 100.</p>",,243492,35,html-multi-slider-response,,5
100,30_while,0.0-36.0,,0,100,0,8516,I'll be here for a bit,I'll be here for a while,<em>something else</em>,0,"<p><img src=""../proexpec/q/q_b_90.jpg"" class=""scaled-img"" /></p><p style=""font-size: 22px"">How likely do you think it is that the man will respond with each of the following sentences? <br>Make sure that your responses sum up to 100.</p>",,252272,36,html-multi-slider-response,,90
100,30_while,0.0-37.0,,0,100,0,4435,I'll be here for a bit,I'll be here for a while,<em>something else</em>,0,"<p><img src=""../proexpec/q/q_b_30.jpg"" class=""scaled-img"" /></p><p style=""font-size: 22px"">How likely do you think it is that the man will respond with each of the following sentences? <br>Make sure that your responses sum up to 100.</p>",,256972,37,html-multi-slider-response,,30
100,30_while,0.0-38.0,,100,0,0,3935,I'll be here for a bit,I'll be here for a while,<em>something else</em>,0,"<p><img src=""../proexpec/q/q_b_15.jpg"" class=""scaled-img"" /></p><p style=""font-size: 22px"">How likely do you think it is that the man will respond with each of the following sentences? <br>Make sure that your responses sum up to 100.</p>",,261172,38,html-multi-slider-response,,15
100,30_while,0.0-39.0,,0,100,0,7066,I'll be here for a bit,I'll be here for a while,<em>something else</em>,0,"<p><img src=""../proexpec/q/q_b_60.jpg"" class=""scaled-img"" /></p><p style=""font-size: 22px"">How likely do you think it is that the man will respond with each of the following sentences? <br>Make sure that your responses sum up to 100.</p>",,268490,39,html-multi-slider-response,,60
70,30_while,0.0-22.0,,0,100,0,37074,I'll be here for a bit,I'll be here for a while,<em>something else</em>,0,"<p><img src=""../proexpec/q/q_b_30.jpg"" class=""scaled-img"" /></p><p style=""font-size: 22px"">How likely do you think it is that the man will respond with each of the following sentences? <br>Make sure that your responses sum up to 100.</p>",,310889,22,html-multi-slider-response,,30
70,30_while,0.0-23.0,,0,50,50,64086,I'll be here for a bit,I'll be here for a while,<em>something else</em>,0,"<p><img src=""../proexpec/q/q_b_60.jpg"" class=""scaled-img"" /></p><p style=""font-size: 22px"">How likely do you think it is that the man will respond with each of the following sentences? <br>Make sure that your responses sum up to 100.</p>",,375230,23,html-multi-slider-response,,60
70,30_while,0.0-24.0,,40,0,60,102377,I'll be here for a bit,I'll be here for a while,<em>something else</em>,0,"<p><img src=""../proexpec/q/q_b_5.jpg"" class=""scaled-img"" /></p><p style=""font-size: 22px"">How likely do you think it is that the man will respond with each of the following sentences? <br>Make sure that your responses sum up to 100.</p>",,477862,24,html-multi-slider-response,,5
70,30_while,0.0-25.0,,50,0,50,29856,I'll be here for a bit,I'll be here for a while,<em>something else</em>,0,"<p><img src=""../proexpec/q/q_b_10.jpg"" class=""scaled-img"" /></p><p style=""font-size: 22px"">How likely do you think it is that the man will respond with each of the following sentences? <br>Make sure that your responses sum up to 100.</p>",,507973,25,html-multi-slider-response,,10
70,30_while,0.0-26.0,,100,0,0,15120,I'll be here for a bit,I'll be here for a while,<em>something else</em>,0,"<p><img src=""../proexpec/q/q_b_15.jpg"" class=""scaled-img"" /></p><p style=""font-size: 22px"">How likely do you think it is that the man will respond with each of the following sentences? <br>Make sure that your responses sum up to 100.</p>",,523347,26,html-multi-slider-response,,15
70,30_while,0.0-27.0,,50,50,0,26744,I'll be here for a bit,I'll be here for a while,<em>something else</em>,0,"<p><img src=""../proexpec/q/q_b_20.jpg"" class=""scaled-img"" /></p><p style=""font-size: 22px"">How likely do you think it is that the man will respond with each of the following sentences? <br>Make sure that your responses sum up to 100.</p>",,550345,27,html-multi-slider-response,,20
70,30_while,0.0-28.0,,0,50,50,24554,I'll be here for a bit,I'll be here for a while,<em>something else</em>,0,"<p><img src=""../proexpec/q/q_b_45.jpg"" class=""scaled-img"" /></p><p style=""font-size: 22px"">How likely do you think it is that the man will respond with each of the following sentences? <br>Make sure that your responses sum up to 100.</p>",,575153,28,html-multi-slider-response,,45
70,30_while,0.0-29.0,,0,40,60,31317,I'll be here for a bit,I'll be here for a while,<em>something else</em>,0,"<p><img src=""../proexpec/q/q_b_60.jpg"" class=""scaled-img"" /></p><p style=""font-size: 22px"">How likely do you think it is that the man will respond with each of the following sentences? <br>Make sure that your responses sum up to 100.</p>",,606724,29,html-multi-slider-response,,60
70,30_while,0.0-30.0,,50,50,0,23586,I'll be here for a bit,I'll be here for a while,<em>something else</em>,0,"<p><img src=""../proexpec/q/q_b_10.jpg"" class=""scaled-img"" /></p><p style=""font-size: 22px"">How likely do you think it is that the man will respond with each of the following sentences? <br>Make sure that your responses sum up to 100.</p>",,630564,30,html-multi-slider-response,,10
70,30_while,0.0-31.0,,50,50,0,44470,I'll be here for a bit,I'll be here for a while,<em>something else</em>,0,"<p><img src=""../proexpec/q/q_b_20.jpg"" class=""scaled-img"" /></p><p style=""font-size: 22px"">How likely do you think it is that the man will respond with each of the following sentences? <br>Make sure that your responses sum up to 100.</p>",,675288,31,html-multi-slider-response,,20
70,30_while,0.0-32.0,,0,25,75,24925,I'll be here for a bit,I'll be here for a while,<em>something else</em>,0,"<p><img src=""../proexpec/q/q_b_90.jpg"" class=""scaled-img"" /></p><p style=""font-size: 22px"">How likely do you think it is that the man will respond with each of the following sentences? <br>Make sure that your responses sum up to 100.</p>",,700467,32,html-multi-slider-response,,90
70,30_while,0.0-33.0,,0,25,75,32505,I'll be here for a bit,I'll be here for a while,<em>something else</em>,0,"<p><img src=""../proexpec/q/q_b_90.jpg"" class=""scaled-img"" /></p><p style=""font-size: 22px"">How likely do you think it is that the man will respond with each of the following sentences? <br>Make sure that your responses sum up to 100.</p>",,733227,33,html-multi-slider-response,,90
70,30_while,0.0-34.0,,0,100,0,21574,I'll be here for a bit,I'll be here for a while,<em>something else</em>,0,"<p><img src=""../proexpec/q/q_b_30.jpg"" class=""scaled-img"" /></p><p style=""font-size: 22px"">How likely do you think it is that the man will respond with each of the following sentences? <br>Make sure that your responses sum up to 100.</p>",,755056,34,html-multi-slider-response,,30
70,30_while,0.0-35.0,,25,0,75,36615,I'll be here for a bit,I'll be here for a while,<em>something else</em>,0,"<p><img src=""../proexpec/q/q_b_5.jpg"" class=""scaled-img"" /></p><p style=""font-size: 22px"">How likely do you think it is that the man will respond with each of the following sentences? <br>Make sure that your responses sum up to 100.</p>",,791924,35,html-multi-slider-response,,5
70,30_while,0.0-36.0,,0,25,75,38334,I'll be here for a bit,I'll be here for a while,<em>something else</em>,0,"<p><img src=""../proexpec/q/q_b_120.jpg"" class=""scaled-img"" /></p><p style=""font-size: 22px"">How likely do you think it is that the man will respond with each of the following sentences? <br>Make sure that your responses sum up to 100.</p>",,830513,36,html-multi-slider-response,,120
70,30_while,0.0-37.0,,100,0,0,12185,I'll be here for a bit,I'll be here for a while,<em>something else</em>,0,"<p><img src=""../proexpec/q/q_b_15.jpg"" class=""scaled-img"" /></p><p style=""font-size: 22px"">How likely do you think it is that the man will respond with each of the following sentences? <br>Make sure that your responses sum up to 100.</p>",,842952,37,html-multi-slider-response,,15
70,30_while,0.0-38.0,,0,75,25,60661,I'll be here for a bit,I'll be here for a while,<em>something else</em>,0,"<p><img src=""../proexpec/q/q_b_45.jpg"" class=""scaled-img"" /></p><p style=""font-size: 22px"">How likely do you think it is that the man will respond with each of the following sentences? <br>Make sure that your responses sum up to 100.</p>",,903866,38,html-multi-slider-response,,45
70,30_while,0.0-39.0,,0,25,75,35094,I'll be here for a bit,I'll be here for a while,<em>something else</em>,0,"<p><img src=""../proexpec/q/q_b_120.jpg"" class=""scaled-img"" /></p><p style=""font-size: 22px"">How likely do you think it is that the man will respond with each of the following sentences? <br>Make sure that your responses sum up to 100.</p>",,939214,39,html-multi-slider-response,,120
84,30_while,0.0-22.0,,0,100,0,5761,I'll be here for a bit,I'll be here for a while,<em>something else</em>,0,"<p><img src=""../proexpec/q/q_b_30.jpg"" class=""scaled-img"" /></p><p style=""font-size: 22px"">How likely do you think it is that the man will respond with each of the following sentences? <br>Make sure that your responses sum up to 100.</p>",,105721,22,html-multi-slider-response,,30
84,30_while,0.0-23.0,,100,0,0,2994,I'll be here for a bit,I'll be here for a while,<em>something else</em>,0,"<p><img src=""../proexpec/q/q_b_15.jpg"" class=""scaled-img"" /></p><p style=""font-size: 22px"">How likely do you think it is that the man will respond with each of the following sentences? <br>Make sure that your responses sum up to 100.</p>",,108968,23,html-multi-slider-response,,15
84,30_while,0.0-24.0,,0,100,0,5546,I'll be here for a bit,I'll be here for a while,<em>something else</em>,0,"<p><img src=""../proexpec/q/q_b_60.jpg"" class=""scaled-img"" /></p><p style=""font-size: 22px"">How likely do you think it is that the man will respond with each of the following sentences? <br>Make sure that your responses sum up to 100.</p>",,114768,24,html-multi-slider-response,,60
84,30_while,0.0-25.0,,0,100,0,4413,I'll be here for a bit,I'll be here for a while,<em>something else</em>,0,"<p><img src=""../proexpec/q/q_b_45.jpg"" class=""scaled-img"" /></p><p style=""font-size: 22px"">How likely do you think it is that the man will respond with each of the following sentences? <br>Make sure that your responses sum up to 100.</p>",,119434,25,html-multi-slider-response,,45
84,30_while,0.0-26.0,,0,0,100,4232,I'll be here for a bit,I'll be here for a while,<em>something else</em>,0,"<p><img src=""../proexpec/q/q_b_120.jpg"" class=""scaled-img"" /></p><p style=""font-size: 22px"">How likely do you think it is that the man will respond with each of the following sentences? <br>Make sure that your responses sum up to 100.</p>",,123918,26,html-multi-slider-response,,120
84,30_while,0.0-27.0,,0,0,100,6946,I'll be here for a bit,I'll be here for a while,<em>something else</em>,0,"<p><img src=""../proexpec/q/q_b_5.jpg"" class=""scaled-img"" /></p><p style=""font-size: 22px"">How likely do you think it is that the man will respond with each of the following sentences? <br>Make sure that your responses sum up to 100.</p>",,131117,27,html-multi-slider-response,,5
84,30_while,0.0-28.0,,0,0,100,4180,I'll be here for a bit,I'll be here for a while,<em>something else</em>,0,"<p><img src=""../proexpec/q/q_b_90.jpg"" class=""scaled-img"" /></p><p style=""font-size: 22px"">How likely do you think it is that the man will respond with each of the following sentences? <br>Make sure that your responses sum up to 100.</p>",,135551,28,html-multi-slider-response,,90
84,30_while,0.0-29.0,,0,0,100,2963,I'll be here for a bit,I'll be here for a while,<em>something else</em>,0,"<p><img src=""../proexpec/q/q_b_90.jpg"" class=""scaled-img"" /></p><p style=""font-size: 22px"">How likely do you think it is that the man will respond with each of the following sentences? <br>Make sure that your responses sum up to 100.</p>",,138767,29,html-multi-slider-response,,90
84,30_while,0.0-30.0,,100,0,0,2464,I'll be here for a bit,I'll be here for a while,<em>something else</em>,0,"<p><img src=""../proexpec/q/q_b_15.jpg"" class=""scaled-img"" /></p><p style=""font-size: 22px"">How likely do you think it is that the man will respond with each of the following sentences? <br>Make sure that your responses sum up to 100.</p>",,141484,30,html-multi-slider-response,,15
84,30_while,0.0-31.0,,0,100,0,3981,I'll be here for a bit,I'll be here for a while,<em>something else</em>,0,"<p><img src=""../proexpec/q/q_b_30.jpg"" class=""scaled-img"" /></p><p style=""font-size: 22px"">How likely do you think it is that the man will respond with each of the following sentences? <br>Make sure that your responses sum up to 100.</p>",,145718,31,html-multi-slider-response,,30
84,30_while,0.0-32.0,,85,15,0,9130,I'll be here for a bit,I'll be here for a while,<em>something else</em>,0,"<p><img src=""../proexpec/q/q_b_20.jpg"" class=""scaled-img"" /></p><p style=""font-size: 22px"">How likely do you think it is that the man will respond with each of the following sentences? <br>Make sure that your responses sum up to 100.</p>",,155101,32,html-multi-slider-response,,20
84,30_while,0.0-33.0,,100,0,0,2747,I'll be here for a bit,I'll be here for a while,<em>something else</em>,0,"<p><img src=""../proexpec/q/q_b_10.jpg"" class=""scaled-img"" /></p><p style=""font-size: 22px"">How likely do you think it is that the man will respond with each of the following sentences? <br>Make sure that your responses sum up to 100.</p>",,158102,33,html-multi-slider-response,,10
84,30_while,0.0-34.0,,0,87,13,7963,I'll be here for a bit,I'll be here for a while,<em>something else</em>,0,"<p><img src=""../proexpec/q/q_b_45.jpg"" class=""scaled-img"" /></p><p style=""font-size: 22px"">How likely do you think it is that the man will respond with each of the following sentences? <br>Make sure that your responses sum up to 100.</p>",,166318,34,html-multi-slider-response,,45
84,30_while,0.0-35.0,,100,0,0,3280,I'll be here for a bit,I'll be here for a while,<em>something else</em>,0,"<p><img src=""../proexpec/q/q_b_20.jpg"" class=""scaled-img"" /></p><p style=""font-size: 22px"">How likely do you think it is that the man will respond with each of the following sentences? <br>Make sure that your responses sum up to 100.</p>",,169851,35,html-multi-slider-response,,20
84,30_while,0.0-36.0,,100,0,0,2981,I'll be here for a bit,I'll be here for a while,<em>something else</em>,0,"<p><img src=""../proexpec/q/q_b_5.jpg"" class=""scaled-img"" /></p><p style=""font-size: 22px"">How likely do you think it is that the man will respond with each of the following sentences? <br>Make sure that your responses sum up to 100.</p>",,173084,36,html-multi-slider-response,,5
84,30_while,0.0-37.0,,100,0,0,2147,I'll be here for a bit,I'll be here for a while,<em>something else</em>,0,"<p><img src=""../proexpec/q/q_b_10.jpg"" class=""scaled-img"" /></p><p style=""font-size: 22px"">How likely do you think it is that the man will respond with each of the following sentences? <br>Make sure that your responses sum up to 100.</p>",,175484,37,html-multi-slider-response,,10
84,30_while,0.0-38.0,,0,0,100,2182,I'll be here for a bit,I'll be here for a while,<em>something else</em>,0,"<p><img src=""../proexpec/q/q_b_120.jpg"" class=""scaled-img"" /></p><p style=""font-size: 22px"">How likely do you think it is that the man will respond with each of the following sentences? <br>Make sure that your responses sum up to 100.</p>",,177918,38,html-multi-slider-response,,120
84,30_while,0.0-39.0,,0,0,100,2363,I'll be here for a bit,I'll be here for a while,<em>something else</em>,0,"<p><img src=""../proexpec/q/q_b_60.jpg"" class=""scaled-img"" /></p><p style=""font-size: 22px"">How likely do you think it is that the man will respond with each of the following sentences? <br>Make sure that your responses sum up to 100.</p>",,180534,39,html-multi-slider-response,,60
86,30_while,0.0-22.0,,0,100,0,21203,I'll be here for a bit,I'll be here for a while,<em>something else</em>,0,"<p><img src=""../proexpec/q/q_b_30.jpg"" class=""scaled-img"" /></p><p style=""font-size: 22px"">How likely do you think it is that the man will respond with each of the following sentences? <br>Make sure that your responses sum up to 100.</p>",,190055,22,html-multi-slider-response,,30
86,30_while,0.0-23.0,,0,100,0,7501,I'll be here for a bit,I'll be here for a while,<em>something else</em>,0,"<p><img src=""../proexpec/q/q_b_120.jpg"" class=""scaled-img"" /></p><p style=""font-size: 22px"">How likely do you think it is that the man will respond with each of the following sentences? <br>Make sure that your responses sum up to 100.</p>",,197815,23,html-multi-slider-response,,120
86,30_while,0.0-24.0,,0,100,0,7451,I'll be here for a bit,I'll be here for a while,<em>something else</em>,0,"<p><img src=""../proexpec/q/q_b_30.jpg"" class=""scaled-img"" /></p><p style=""font-size: 22px"">How likely do you think it is that the man will respond with each of the following sentences? <br>Make sure that your responses sum up to 100.</p>",,205527,24,html-multi-slider-response,,30
86,30_while,0.0-25.0,,0,100,0,5347,I'll be here for a bit,I'll be here for a while,<em>something else</em>,0,"<p><img src=""../proexpec/q/q_b_60.jpg"" class=""scaled-img"" /></p><p style=""font-size: 22px"">How likely do you think it is that the man will respond with each of the following sentences? <br>Make sure that your responses sum up to 100.</p>",,211130,25,html-multi-slider-response,,60
86,30_while,0.0-26.0,,0,100,0,4279,I'll be here for a bit,I'll be here for a while,<em>something else</em>,0,"<p><img src=""../proexpec/q/q_b_45.jpg"" class=""scaled-img"" /></p><p style=""font-size: 22px"">How likely do you think it is that the man will respond with each of the following sentences? <br>Make sure that your responses sum up to 100.</p>",,215674,26,html-multi-slider-response,,45
86,30_while,0.0-27.0,,100,0,0,4233,I'll be here for a bit,I'll be here for a while,<em>something else</em>,0,"<p><img src=""../proexpec/q/q_b_10.jpg"" class=""scaled-img"" /></p><p style=""font-size: 22px"">How likely do you think it is that the man will respond with each of the following sentences? <br>Make sure that your responses sum up to 100.</p>",,220164,27,html-multi-slider-response,,10
86,30_while,0.0-28.0,,100,0,0,5848,I'll be here for a bit,I'll be here for a while,<em>something else</em>,0,"<p><img src=""../proexpec/q/q_b_20.jpg"" class=""scaled-img"" /></p><p style=""font-size: 22px"">How likely do you think it is that the man will respond with each of the following sentences? <br>Make sure that your responses sum up to 100.</p>",,226270,28,html-multi-slider-response,,20
86,30_while,0.0-29.0,,100,0,0,3881,I'll be here for a bit,I'll be here for a while,<em>something else</em>,0,"<p><img src=""../proexpec/q/q_b_15.jpg"" class=""scaled-img"" /></p><p style=""font-size: 22px"">How likely do you think it is that the man will respond with each of the following sentences? <br>Make sure that your responses sum up to 100.</p>",,230411,29,html-multi-slider-response,,15
86,30_while,0.0-30.0,,100,0,0,3929,I'll be here for a bit,I'll be here for a while,<em>something else</em>,0,"<p><img src=""../proexpec/q/q_b_20.jpg"" class=""scaled-img"" /></p><p style=""font-size: 22px"">How likely do you think it is that the man will respond with each of the following sentences? <br>Make sure that your responses sum up to 100.</p>",,234599,30,html-multi-slider-response,,20
86,30_while,0.0-31.0,,0,100,0,3304,I'll be here for a bit,I'll be here for a while,<em>something else</em>,0,"<p><img src=""../proexpec/q/q_b_60.jpg"" class=""scaled-img"" /></p><p style=""font-size: 22px"">How likely do you think it is that the man will respond with each of the following sentences? <br>Make sure that your responses sum up to 100.</p>",,238162,31,html-multi-slider-response,,60
86,30_while,0.0-32.0,,0,100,0,3424,I'll be here for a bit,I'll be here for a while,<em>something else</em>,0,"<p><img src=""../proexpec/q/q_b_90.jpg"" class=""scaled-img"" /></p><p style=""font-size: 22px"">How likely do you think it is that the man will respond with each of the following sentences? <br>Make sure that your responses sum up to 100.</p>",,241840,32,html-multi-slider-response,,90
86,30_while,0.0-33.0,,100,0,0,3142,I'll be here for a bit,I'll be here for a while,<em>something else</em>,0,"<p><img src=""../proexpec/q/q_b_15.jpg"" class=""scaled-img"" /></p><p style=""font-size: 22px"">How likely do you think it is that the man will respond with each of the following sentences? <br>Make sure that your responses sum up to 100.</p>",,245244,33,html-multi-slider-response,,15
86,30_while,0.0-34.0,,0,100,0,2983,I'll be here for a bit,I'll be here for a while,<em>something else</em>,0,"<p><img src=""../proexpec/q/q_b_45.jpg"" class=""scaled-img"" /></p><p style=""font-size: 22px"">How likely do you think it is that the man will respond with each of the following sentences? <br>Make sure that your responses sum up to 100.</p>",,248490,34,html-multi-slider-response,,45
86,30_while,0.0-35.0,,0,100,0,2731,I'll be here for a bit,I'll be here for a while,<em>something else</em>,0,"<p><img src=""../proexpec/q/q_b_120.jpg"" class=""scaled-img"" /></p><p style=""font-size: 22px"">How likely do you think it is that the man will respond with each of the following sentences? <br>Make sure that your responses sum up to 100.</p>",,251482,35,html-multi-slider-response,,120
86,30_while,0.0-36.0,,100,0,0,3484,I'll be here for a bit,I'll be here for a while,<em>something else</em>,0,"<p><img src=""../proexpec/q/q_b_5.jpg"" class=""scaled-img"" /></p><p style=""font-size: 22px"">How likely do you think it is that the man will respond with each of the following sentences? <br>Make sure that your responses sum up to 100.</p>",,255222,36,html-multi-slider-response,,5
86,30_while,0.0-37.0,,0,100,0,4052,I'll be here for a bit,I'll be here for a while,<em>something else</em>,0,"<p><img src=""../proexpec/q/q_b_90.jpg"" class=""scaled-img"" /></p><p style=""font-size: 22px"">How likely do you think it is that the man will respond with each of the following sentences? <br>Make sure that your responses sum up to 100.</p>",,259532,37,html-multi-slider-response,,90
86,30_while,0.0-38.0,,100,0,0,3016,I'll be here for a bit,I'll be here for a while,<em>something else</em>,0,"<p><img src=""../proexpec/q/q_b_10.jpg"" class=""scaled-img"" /></p><p style=""font-size: 22px"">How likely do you think it is that the man will respond with each of the following sentences? <br>Make sure that your responses sum up to 100.</p>",,262804,38,html-multi-slider-response,,10
86,30_while,0.0-39.0,,100,0,0,2452,I'll be here for a bit,I'll be here for a while,<em>something else</em>,0,"<p><img src=""../proexpec/q/q_b_5.jpg"" class=""scaled-img"" /></p><p style=""font-size: 22px"">How likely do you think it is that the man will respond with each of the following sentences? <br>Make sure that your responses sum up to 100.</p>",,265512,39,html-multi-slider-response,,5
112,30_while,0.0-22.0,,100,0,0,8854,I'll be here for a bit,I'll be here for a while,<em>something else</em>,0,"<p><img src=""../proexpec/q/q_b_10.jpg"" class=""scaled-img"" /></p><p style=""font-size: 22px"">How likely do you think it is that the man will respond with each of the following sentences? <br>Make sure that your responses sum up to 100.</p>",,133538,22,html-multi-slider-response,,10
112,30_while,0.0-23.0,,100,0,0,7815,I'll be here for a bit,I'll be here for a while,<em>something else</em>,0,"<p><img src=""../proexpec/q/q_b_15.jpg"" class=""scaled-img"" /></p><p style=""font-size: 22px"">How likely do you think it is that the man will respond with each of the following sentences? <br>Make sure that your responses sum up to 100.</p>",,141610,23,html-multi-slider-response,,15
112,30_while,0.0-24.0,,0,100,0,3967,I'll be here for a bit,I'll be here for a while,<em>something else</em>,0,"<p><img src=""../proexpec/q/q_b_45.jpg"" class=""scaled-img"" /></p><p style=""font-size: 22px"">How likely do you think it is that the man will respond with each of the following sentences? <br>Make sure that your responses sum up to 100.</p>",,145833,24,html-multi-slider-response,,45
112,30_while,0.0-25.0,,0,100,0,4939,I'll be here for a bit,I'll be here for a while,<em>something else</em>,0,"<p><img src=""../proexpec/q/q_b_60.jpg"" class=""scaled-img"" /></p><p style=""font-size: 22px"">How likely do you think it is that the man will respond with each of the following sentences? <br>Make sure that your responses sum up to 100.</p>",,151029,25,html-multi-slider-response,,60
112,30_while,0.0-26.0,,80,20,0,6946,I'll be here for a bit,I'll be here for a while,<em>something else</em>,0,"<p><img src=""../proexpec/q/q_b_30.jpg"" class=""scaled-img"" /></p><p style=""font-size: 22px"">How likely do you think it is that the man will respond with each of the following sentences? <br>Make sure that your responses sum up to 100.</p>",,158229,26,html-multi-slider-response,,30
112,30_while,0.0-27.0,,100,0,0,4734,I'll be here for a bit,I'll be here for a while,<em>something else</em>,0,"<p><img src=""../proexpec/q/q_b_10.jpg"" class=""scaled-img"" /></p><p style=""font-size: 22px"">How likely do you think it is that the man will respond with each of the following sentences? <br>Make sure that your responses sum up to 100.</p>",,163217,27,html-multi-slider-response,,10
112,30_while,0.0-28.0,,0,100,0,5116,I'll be here for a bit,I'll be here for a while,<em>something else</em>,0,"<p><img src=""../proexpec/q/q_b_45.jpg"" class=""scaled-img"" /></p><p style=""font-size: 22px"">How likely do you think it is that the man will respond with each of the following sentences? <br>Make sure that your responses sum up to 100.</p>",,168591,28,html-multi-slider-response,,45
112,30_while,0.0-29.0,,100,0,0,3671,I'll be here for a bit,I'll be here for a while,<em>something else</em>,0,"<p><img src=""../proexpec/q/q_b_5.jpg"" class=""scaled-img"" /></p><p style=""font-size: 22px"">How likely do you think it is that the man will respond with each of the following sentences? <br>Make sure that your responses sum up to 100.</p>",,172523,29,html-multi-slider-response,,5
112,30_while,0.0-30.0,,0,100,0,4500,I'll be here for a bit,I'll be here for a while,<em>something else</em>,0,"<p><img src=""../proexpec/q/q_b_90.jpg"" class=""scaled-img"" /></p><p style=""font-size: 22px"">How likely do you think it is that the man will respond with each of the following sentences? <br>Make sure that your responses sum up to 100.</p>",,177279,30,html-multi-slider-response,,90
112,30_while,0.0-31.0,,100,0,0,6307,I'll be here for a bit,I'll be here for a while,<em>something else</em>,0,"<p><img src=""../proexpec/q/q_b_5.jpg"" class=""scaled-img"" /></p><p style=""font-size: 22px"">How likely do you think it is that the man will respond with each of the following sentences? <br>Make sure that your responses sum up to 100.</p>",,183848,31,html-multi-slider-response,,5
112,30_while,0.0-32.0,,70,30,0,10554,I'll be here for a bit,I'll be here for a while,<em>something else</em>,0,"<p><img src=""../proexpec/q/q_b_30.jpg"" class=""scaled-img"" /></p><p style=""font-size: 22px"">How likely do you think it is that the man will respond with each of the following sentences? <br>Make sure that your responses sum up to 100.</p>",,194664,32,html-multi-slider-response,,30
112,30_while,0.0-33.0,,100,0,0,4840,I'll be here for a bit,I'll be here for a while,<em>something else</em>,0,"<p><img src=""../proexpec/q/q_b_20.jpg"" class=""scaled-img"" /></p><p style=""font-size: 22px"">How likely do you think it is that the man will respond with each of the following sentences? <br>Make sure that your responses sum up to 100.</p>",,199765,33,html-multi-slider-response,,20
112,30_while,0.0-34.0,,100,0,0,7408,I'll be here for a bit,I'll be here for a while,<em>something else</em>,0,"<p><img src=""../proexpec/q/q_b_20.jpg"" class=""scaled-img"" /></p><p style=""font-size: 22px"">How likely do you think it is that the man will respond with each of the following sentences? <br>Make sure that your responses sum up to 100.</p>",,207429,34,html-multi-slider-response,,20
112,30_while,0.0-35.0,,0,100,0,17224,I'll be here for a bit,I'll be here for a while,<em>something else</em>,0,"<p><img src=""../proexpec/q/q_b_60.jpg"" class=""scaled-img"" /></p><p style=""font-size: 22px"">How likely do you think it is that the man will respond with each of the following sentences? <br>Make sure that your responses sum up to 100.</p>",,224908,35,html-multi-slider-response,,60
112,30_while,0.0-36.0,,100,0,0,4093,I'll be here for a bit,I'll be here for a while,<em>something else</em>,0,"<p><img src=""../proexpec/q/q_b_15.jpg"" class=""scaled-img"" /></p><p style=""font-size: 22px"">How likely do you think it is that the man will respond with each of the following sentences? <br>Make sure that your responses sum up to 100.</p>",,229258,36,html-multi-slider-response,,15
112,30_while,0.0-37.0,,0,100,0,3695,I'll be here for a bit,I'll be here for a while,<em>something else</em>,0,"<p><img src=""../proexpec/q/q_b_90.jpg"" class=""scaled-img"" /></p><p style=""font-size: 22px"">How likely do you think it is that the man will respond with each of the following sentences? <br>Make sure that your responses sum up to 100.</p>",,233212,37,html-multi-slider-response,,90
112,30_while,0.0-38.0,,0,100,0,3481,I'll be here for a bit,I'll be here for a while,<em>something else</em>,0,"<p><img src=""../proexpec/q/q_b_120.jpg"" class=""scaled-img"" /></p><p style=""font-size: 22px"">How likely do you think it is that the man will respond with each of the following sentences? <br>Make sure that your responses sum up to 100.</p>",,236950,38,html-multi-slider-response,,120
112,30_while,0.0-39.0,,0,100,0,3654,I'll be here for a bit,I'll be here for a while,<em>something else</em>,0,"<p><img src=""../proexpec/q/q_b_120.jpg"" class=""scaled-img"" /></p><p style=""font-size: 22px"">How likely do you think it is that the man will respond with each of the following sentences? <br>Make sure that your responses sum up to 100.</p>",,240861,39,html-multi-slider-response,,120
116,30_while,0.0-22.0,,0,100,0,11565,I'll be here for a bit,I'll be here for a while,<em>something else</em>,0,"<p><img src=""../proexpec/q/q_b_120.jpg"" class=""scaled-img"" /></p><p style=""font-size: 22px"">How likely do you think it is that the man will respond with each of the following sentences? <br>Make sure that your responses sum up to 100.</p>",,191764,22,html-multi-slider-response,,120
116,30_while,0.0-23.0,,0,100,0,5518,I'll be here for a bit,I'll be here for a while,<em>something else</em>,0,"<p><img src=""../proexpec/q/q_b_45.jpg"" class=""scaled-img"" /></p><p style=""font-size: 22px"">How likely do you think it is that the man will respond with each of the following sentences? <br>Make sure that your responses sum up to 100.</p>",,197546,23,html-multi-slider-response,,45
116,30_while,0.0-24.0,,0,100,0,5323,I'll be here for a bit,I'll be here for a while,<em>something else</em>,0,"<p><img src=""../proexpec/q/q_b_60.jpg"" class=""scaled-img"" /></p><p style=""font-size: 22px"">How likely do you think it is that the man will respond with each of the following sentences? <br>Make sure that your responses sum up to 100.</p>",,203129,24,html-multi-slider-response,,60
116,30_while,0.0-25.0,,0,0,100,8645,I'll be here for a bit,I'll be here for a while,<em>something else</em>,0,"<p><img src=""../proexpec/q/q_b_5.jpg"" class=""scaled-img"" /></p><p style=""font-size: 22px"">How likely do you think it is that the man will respond with each of the following sentences? <br>Make sure that your responses sum up to 100.</p>",,212045,25,html-multi-slider-response,,5
116,30_while,0.0-26.0,,0,0,100,6623,I'll be here for a bit,I'll be here for a while,<em>something else</em>,0,"<p><img src=""../proexpec/q/q_b_10.jpg"" class=""scaled-img"" /></p><p style=""font-size: 22px"">How likely do you think it is that the man will respond with each of the following sentences? <br>Make sure that your responses sum up to 100.</p>",,218930,26,html-multi-slider-response,,10
116,30_while,0.0-27.0,,100,0,0,5838,I'll be here for a bit,I'll be here for a while,<em>something else</em>,0,"<p><img src=""../proexpec/q/q_b_15.jpg"" class=""scaled-img"" /></p><p style=""font-size: 22px"">How likely do you think it is that the man will respond with each of the following sentences? <br>Make sure that your responses sum up to 100.</p>",,225030,27,html-multi-slider-response,,15
116,30_while,0.0-28.0,,100,0,0,5723,I'll be here for a bit,I'll be here for a while,<em>something else</em>,0,"<p><img src=""../proexpec/q/q_b_15.jpg"" class=""scaled-img"" /></p><p style=""font-size: 22px"">How likely do you think it is that the man will respond with each of the following sentences? <br>Make sure that your responses sum up to 100.</p>",,231013,28,html-multi-slider-response,,15
116,30_while,0.0-29.0,,0,100,0,5591,I'll be here for a bit,I'll be here for a while,<em>something else</em>,0,"<p><img src=""../proexpec/q/q_b_90.jpg"" class=""scaled-img"" /></p><p style=""font-size: 22px"">How likely do you think it is that the man will respond with each of the following sentences? <br>Make sure that your responses sum up to 100.</p>",,236864,29,html-multi-slider-response,,90
116,30_while,0.0-30.0,,0,100,0,5373,I'll be here for a bit,I'll be here for a while,<em>something else</em>,0,"<p><img src=""../proexpec/q/q_b_90.jpg"" class=""scaled-img"" /></p><p style=""font-size: 22px"">How likely do you think it is that the man will respond with each of the following sentences? <br>Make sure that your responses sum up to 100.</p>",,242498,30,html-multi-slider-response,,90
116,30_while,0.0-31.0,,30,0,70,27036,I'll be here for a bit,I'll be here for a while,<em>something else</em>,0,"<p><img src=""../proexpec/q/q_b_5.jpg"" class=""scaled-img"" /></p><p style=""font-size: 22px"">How likely do you think it is that the man will respond with each of the following sentences? <br>Make sure that your responses sum up to 100.</p>",,269798,31,html-multi-slider-response,,5
116,30_while,0.0-32.0,,0,100,0,5474,I'll be here for a bit,I'll be here for a while,<em>something else</em>,0,"<p><img src=""../proexpec/q/q_b_120.jpg"" class=""scaled-img"" /></p><p style=""font-size: 22px"">How likely do you think it is that the man will respond with each of the following sentences? <br>Make sure that your responses sum up to 100.</p>",,275534,32,html-multi-slider-response,,120
116,30_while,0.0-33.0,,50,0,50,13971,I'll be here for a bit,I'll be here for a while,<em>something else</em>,0,"<p><img src=""../proexpec/q/q_b_10.jpg"" class=""scaled-img"" /></p><p style=""font-size: 22px"">How likely do you think it is that the man will respond with each of the following sentences? <br>Make sure that your responses sum up to 100.</p>",,289765,33,html-multi-slider-response,,10
116,30_while,0.0-34.0,,0,100,0,6991,I'll be here for a bit,I'll be here for a while,<em>something else</em>,0,"<p><img src=""../proexpec/q/q_b_60.jpg"" class=""scaled-img"" /></p><p style=""font-size: 22px"">How likely do you think it is that the man will respond with each of the following sentences? <br>Make sure that your responses sum up to 100.</p>",,297019,34,html-multi-slider-response,,60
116,30_while,0.0-35.0,,35,65,0,15318,I'll be here for a bit,I'll be here for a while,<em>something else</em>,0,"<p><img src=""../proexpec/q/q_b_20.jpg"" class=""scaled-img"" /></p><p style=""font-size: 22px"">How likely do you think it is that the man will respond with each of the following sentences? <br>Make sure that your responses sum up to 100.</p>",,312598,35,html-multi-slider-response,,20
116,30_while,0.0-36.0,,46,54,0,6036,I'll be here for a bit,I'll be here for a while,<em>something else</em>,0,"<p><img src=""../proexpec/q/q_b_20.jpg"" class=""scaled-img"" /></p><p style=""font-size: 22px"">How likely do you think it is that the man will respond with each of the following sentences? <br>Make sure that your responses sum up to 100.</p>",,318899,36,html-multi-slider-response,,20
116,30_while,0.0-37.0,,0,100,0,4207,I'll be here for a bit,I'll be here for a while,<em>something else</em>,0,"<p><img src=""../proexpec/q/q_b_30.jpg"" class=""scaled-img"" /></p><p style=""font-size: 22px"">How likely do you think it is that the man will respond with each of the following sentences? <br>Make sure that your responses sum up to 100.</p>",,323368,37,html-multi-slider-response,,30
116,30_while,0.0-38.0,,0,100,0,3803,I'll be here for a bit,I'll be here for a while,<em>something else</em>,0,"<p><img src=""../proexpec/q/q_b_45.jpg"" class=""scaled-img"" /></p><p style=""font-size: 22px"">How likely do you think it is that the man will respond with each of the following sentences? <br>Make sure that your responses sum up to 100.</p>",,327435,38,html-multi-slider-response,,45
116,30_while,0.0-39.0,,0,100,0,3406,I'll be here for a bit,I'll be here for a while,<em>something else</em>,0,"<p><img src=""../proexpec/q/q_b_30.jpg"" class=""scaled-img"" /></p><p style=""font-size: 22px"">How likely do you think it is that the man will respond with each of the following sentences? <br>Make sure that your responses sum up to 100.</p>",,331100,39,html-multi-slider-response,,30
80,30_while,0.0-22.0,,100,0,0,10505,I'll be here for a bit,I'll be here for a while,<em>something else</em>,0,"<p><img src=""../proexpec/q/q_b_15.jpg"" class=""scaled-img"" /></p><p style=""font-size: 22px"">How likely do you think it is that the man will respond with each of the following sentences? <br>Make sure that your responses sum up to 100.</p>",,79977,22,html-multi-slider-response,,15
80,30_while,0.0-23.0,,0,100,0,4779,I'll be here for a bit,I'll be here for a while,<em>something else</em>,0,"<p><img src=""../proexpec/q/q_b_60.jpg"" class=""scaled-img"" /></p><p style=""font-size: 22px"">How likely do you think it is that the man will respond with each of the following sentences? <br>Make sure that your responses sum up to 100.</p>",,85015,23,html-multi-slider-response,,60
80,30_while,0.0-24.0,,0,100,0,3035,I'll be here for a bit,I'll be here for a while,<em>something else</em>,0,"<p><img src=""../proexpec/q/q_b_60.jpg"" class=""scaled-img"" /></p><p style=""font-size: 22px"">How likely do you think it is that the man will respond with each of the following sentences? <br>Make sure that your responses sum up to 100.</p>",,88314,24,html-multi-slider-response,,60
80,30_while,0.0-25.0,,0,100,0,2719,I'll be here for a bit,I'll be here for a while,<em>something else</em>,0,"<p><img src=""../proexpec/q/q_b_120.jpg"" class=""scaled-img"" /></p><p style=""font-size: 22px"">How likely do you think it is that the man will respond with each of the following sentences? <br>Make sure that your responses sum up to 100.</p>",,91292,25,html-multi-slider-response,,120
80,30_while,0.0-26.0,,100,0,0,3264,I'll be here for a bit,I'll be here for a while,<em>something else</em>,0,"<p><img src=""../proexpec/q/q_b_20.jpg"" class=""scaled-img"" /></p><p style=""font-size: 22px"">How likely do you think it is that the man will respond with each of the following sentences? <br>Make sure that your responses sum up to 100.</p>",,94817,26,html-multi-slider-response,,20
80,30_while,0.0-27.0,,100,0,0,5987,I'll be here for a bit,I'll be here for a while,<em>something else</em>,0,"<p><img src=""../proexpec/q/q_b_10.jpg"" class=""scaled-img"" /></p><p style=""font-size: 22px"">How likely do you think it is that the man will respond with each of the following sentences? <br>Make sure that your responses sum up to 100.</p>",,101061,27,html-multi-slider-response,,10
80,30_while,0.0-28.0,,30,0,70,10288,I'll be here for a bit,I'll be here for a while,<em>something else</em>,0,"<p><img src=""../proexpec/q/q_b_5.jpg"" class=""scaled-img"" /></p><p style=""font-size: 22px"">How likely do you think it is that the man will respond with each of the following sentences? <br>Make sure that your responses sum up to 100.</p>",,111601,28,html-multi-slider-response,,5
80,30_while,0.0-29.0,,100,0,0,8102,I'll be here for a bit,I'll be here for a while,<em>something else</em>,0,"<p><img src=""../proexpec/q/q_b_10.jpg"" class=""scaled-img"" /></p><p style=""font-size: 22px"">How likely do you think it is that the man will respond with each of the following sentences? <br>Make sure that your responses sum up to 100.</p>",,119969,29,html-multi-slider-response,,10
80,30_while,0.0-30.0,,0,100,0,3007,I'll be here for a bit,I'll be here for a while,<em>something else</em>,0,"<p><img src=""../proexpec/q/q_b_45.jpg"" class=""scaled-img"" /></p><p style=""font-size: 22px"">How likely do you think it is that the man will respond with each of the following sentences? <br>Make sure that your responses sum up to 100.</p>",,123243,30,html-multi-slider-response,,45
80,30_while,0.0-31.0,,0,100,0,2046,I'll be here for a bit,I'll be here for a while,<em>something else</em>,0,"<p><img src=""../proexpec/q/q_b_45.jpg"" class=""scaled-img"" /></p><p style=""font-size: 22px"">How likely do you think it is that the man will respond with each of the following sentences? <br>Make sure that your responses sum up to 100.</p>",,125542,31,html-multi-slider-response,,45
80,30_while,0.0-32.0,,0,100,0,4095,I'll be here for a bit,I'll be here for a while,<em>something else</em>,0,"<p><img src=""../proexpec/q/q_b_30.jpg"" class=""scaled-img"" /></p><p style=""font-size: 22px"">How likely do you think it is that the man will respond with each of the following sentences? <br>Make sure that your responses sum up to 100.</p>",,129898,32,html-multi-slider-response,,30
80,30_while,0.0-33.0,,0,100,0,2322,I'll be here for a bit,I'll be here for a while,<em>something else</em>,0,"<p><img src=""../proexpec/q/q_b_90.jpg"" class=""scaled-img"" /></p><p style=""font-size: 22px"">How likely do you think it is that the man will respond with each of the following sentences? <br>Make sure that your responses sum up to 100.</p>",,132476,33,html-multi-slider-response,,90
80,30_while,0.0-34.0,,0,100,0,2100,I'll be here for a bit,I'll be here for a while,<em>something else</em>,0,"<p><img src=""../proexpec/q/q_b_120.jpg"" class=""scaled-img"" /></p><p style=""font-size: 22px"">How likely do you think it is that the man will respond with each of the following sentences? <br>Make sure that your responses sum up to 100.</p>",,134835,34,html-multi-slider-response,,120
80,30_while,0.0-35.0,,0,100,0,1897,I'll be here for a bit,I'll be here for a while,<em>something else</em>,0,"<p><img src=""../proexpec/q/q_b_20.jpg"" class=""scaled-img"" /></p><p style=""font-size: 22px"">How likely do you think it is that the man will respond with each of the following sentences? <br>Make sure that your responses sum up to 100.</p>",,136984,35,html-multi-slider-response,,20
80,30_while,0.0-36.0,,0,100,0,1966,I'll be here for a bit,I'll be here for a while,<em>something else</em>,0,"<p><img src=""../proexpec/q/q_b_15.jpg"" class=""scaled-img"" /></p><p style=""font-size: 22px"">How likely do you think it is that the man will respond with each of the following sentences? <br>Make sure that your responses sum up to 100.</p>",,139206,36,html-multi-slider-response,,15
80,30_while,0.0-37.0,,0,100,0,2172,I'll be here for a bit,I'll be here for a while,<em>something else</em>,0,"<p><img src=""../proexpec/q/q_b_90.jpg"" class=""scaled-img"" /></p><p style=""font-size: 22px"">How likely do you think it is that the man will respond with each of the following sentences? <br>Make sure that your responses sum up to 100.</p>",,141640,37,html-multi-slider-response,,90
80,30_while,0.0-38.0,,0,100,0,2092,I'll be here for a bit,I'll be here for a while,<em>something else</em>,0,"<p><img src=""../proexpec/q/q_b_30.jpg"" class=""scaled-img"" /></p><p style=""font-size: 22px"">How likely do you think it is that the man will respond with each of the following sentences? <br>Make sure that your responses sum up to 100.</p>",,143990,38,html-multi-slider-response,,30
80,30_while,0.0-39.0,,100,0,0,2142,I'll be here for a bit,I'll be here for a while,<em>something else</em>,0,"<p><img src=""../proexpec/q/q_b_5.jpg"" class=""scaled-img"" /></p><p style=""font-size: 22px"">How likely do you think it is that the man will respond with each of the following sentences? <br>Make sure that your responses sum up to 100.</p>",,146392,39,html-multi-slider-response,,5
110,30_while,0.0-22.0,,19,73,8,45511,I'll be here for a bit,I'll be here for a while,<em>something else</em>,0,"<p><img src=""../proexpec/q/q_b_30.jpg"" class=""scaled-img"" /></p><p style=""font-size: 22px"">How likely do you think it is that the man will respond with each of the following sentences? <br>Make sure that your responses sum up to 100.</p>",,158909,22,html-multi-slider-response,,30
110,30_while,0.0-23.0,,20,75,5,39269,I'll be here for a bit,I'll be here for a while,<em>something else</em>,0,"<p><img src=""../proexpec/q/q_b_45.jpg"" class=""scaled-img"" /></p><p style=""font-size: 22px"">How likely do you think it is that the man will respond with each of the following sentences? <br>Make sure that your responses sum up to 100.</p>",,198429,23,html-multi-slider-response,,45
110,30_while,0.0-24.0,,30,70,0,44354,I'll be here for a bit,I'll be here for a while,<em>something else</em>,0,"<p><img src=""../proexpec/q/q_b_120.jpg"" class=""scaled-img"" /></p><p style=""font-size: 22px"">How likely do you think it is that the man will respond with each of the following sentences? <br>Make sure that your responses sum up to 100.</p>",,243064,24,html-multi-slider-response,,120
110,30_while,0.0-25.0,,60,40,0,22735,I'll be here for a bit,I'll be here for a while,<em>something else</em>,0,"<p><img src=""../proexpec/q/q_b_20.jpg"" class=""scaled-img"" /></p><p style=""font-size: 22px"">How likely do you think it is that the man will respond with each of the following sentences? <br>Make sure that your responses sum up to 100.</p>",,266056,25,html-multi-slider-response,,20
110,30_while,0.0-26.0,,65,30,5,26055,I'll be here for a bit,I'll be here for a while,<em>something else</em>,0,"<p><img src=""../proexpec/q/q_b_90.jpg"" class=""scaled-img"" /></p><p style=""font-size: 22px"">How likely do you think it is that the man will respond with each of the following sentences? <br>Make sure that your responses sum up to 100.</p>",,292376,26,html-multi-slider-response,,90
110,30_while,0.0-27.0,,0,100,0,8864,I'll be here for a bit,I'll be here for a while,<em>something else</em>,0,"<p><img src=""../proexpec/q/q_b_120.jpg"" class=""scaled-img"" /></p><p style=""font-size: 22px"">How likely do you think it is that the man will respond with each of the following sentences? <br>Make sure that your responses sum up to 100.</p>",,301495,27,html-multi-slider-response,,120
110,30_while,0.0-28.0,,100,0,0,9230,I'll be here for a bit,I'll be here for a while,<em>something else</em>,0,"<p><img src=""../proexpec/q/q_b_20.jpg"" class=""scaled-img"" /></p><p style=""font-size: 22px"">How likely do you think it is that the man will respond with each of the following sentences? <br>Make sure that your responses sum up to 100.</p>",,310983,28,html-multi-slider-response,,20
110,30_while,0.0-29.0,,10,90,0,13208,I'll be here for a bit,I'll be here for a while,<em>something else</em>,0,"<p><img src=""../proexpec/q/q_b_60.jpg"" class=""scaled-img"" /></p><p style=""font-size: 22px"">How likely do you think it is that the man will respond with each of the following sentences? <br>Make sure that your responses sum up to 100.</p>",,324447,29,html-multi-slider-response,,60
110,30_while,0.0-30.0,,0,0,100,12311,I'll be here for a bit,I'll be here for a while,<em>something else</em>,0,"<p><img src=""../proexpec/q/q_b_15.jpg"" class=""scaled-img"" /></p><p style=""font-size: 22px"">How likely do you think it is that the man will respond with each of the following sentences? <br>Make sure that your responses sum up to 100.</p>",,337015,30,html-multi-slider-response,,15
110,30_while,0.0-31.0,,10,60,30,22912,I'll be here for a bit,I'll be here for a while,<em>something else</em>,0,"<p><img src=""../proexpec/q/q_b_30.jpg"" class=""scaled-img"" /></p><p style=""font-size: 22px"">How likely do you think it is that the man will respond with each of the following sentences? <br>Make sure that your responses sum up to 100.</p>",,360184,31,html-multi-slider-response,,30
110,30_while,0.0-32.0,,0,100,0,5687,I'll be here for a bit,I'll be here for a while,<em>something else</em>,0,"<p><img src=""../proexpec/q/q_b_60.jpg"" class=""scaled-img"" /></p><p style=""font-size: 22px"">How likely do you think it is that the man will respond with each of the following sentences? <br>Make sure that your responses sum up to 100.</p>",,366125,32,html-multi-slider-response,,60
110,30_while,0.0-33.0,,0,0,100,5210,I'll be here for a bit,I'll be here for a while,<em>something else</em>,0,"<p><img src=""../proexpec/q/q_b_10.jpg"" class=""scaled-img"" /></p><p style=""font-size: 22px"">How likely do you think it is that the man will respond with each of the following sentences? <br>Make sure that your responses sum up to 100.</p>",,371605,33,html-multi-slider-response,,10
110,30_while,0.0-34.0,,100,0,0,7205,I'll be here for a bit,I'll be here for a while,<em>something else</em>,0,"<p><img src=""../proexpec/q/q_b_10.jpg"" class=""scaled-img"" /></p><p style=""font-size: 22px"">How likely do you think it is that the man will respond with each of the following sentences? <br>Make sure that your responses sum up to 100.</p>",,379069,34,html-multi-slider-response,,10
110,30_while,0.0-35.0,,30,70,0,18774,I'll be here for a bit,I'll be here for a while,<em>something else</em>,0,"<p><img src=""../proexpec/q/q_b_45.jpg"" class=""scaled-img"" /></p><p style=""font-size: 22px"">How likely do you think it is that the man will respond with each of the following sentences? <br>Make sure that your responses sum up to 100.</p>",,398109,35,html-multi-slider-response,,45
110,30_while,0.0-36.0,,100,0,0,6059,I'll be here for a bit,I'll be here for a while,<em>something else</em>,0,"<p><img src=""../proexpec/q/q_b_15.jpg"" class=""scaled-img"" /></p><p style=""font-size: 22px"">How likely do you think it is that the man will respond with each of the following sentences? <br>Make sure that your responses sum up to 100.</p>",,404429,36,html-multi-slider-response,,15
110,30_while,0.0-37.0,,0,0,100,8633,I'll be here for a bit,I'll be here for a while,<em>something else</em>,0,"<p><img src=""../proexpec/q/q_b_5.jpg"" class=""scaled-img"" /></p><p style=""font-size: 22px"">How likely do you think it is that the man will respond with each of the following sentences? <br>Make sure that your responses sum up to 100.</p>",,413317,37,html-multi-slider-response,,5
110,30_while,0.0-38.0,,0,100,0,6115,I'll be here for a bit,I'll be here for a while,<em>something else</em>,0,"<p><img src=""../proexpec/q/q_b_90.jpg"" class=""scaled-img"" /></p><p style=""font-size: 22px"">How likely do you think it is that the man will respond with each of the following sentences? <br>Make sure that your responses sum up to 100.</p>",,419694,38,html-multi-slider-response,,90
110,30_while,0.0-39.0,,0,0,100,6167,I'll be here for a bit,I'll be here for a while,<em>something else</em>,0,"<p><img src=""../proexpec/q/q_b_5.jpg"" class=""scaled-img"" /></p><p style=""font-size: 22px"">How likely do you think it is that the man will respond with each of the following sentences? <br>Make sure that your responses sum up to 100.</p>",,426112,39,html-multi-slider-response,,5
88,30_while,0.0-22.0,,23,77,0,20805,I'll be here for a bit,I'll be here for a while,<em>something else</em>,0,"<p><img src=""../proexpec/q/q_b_20.jpg"" class=""scaled-img"" /></p><p style=""font-size: 22px"">How likely do you think it is that the man will respond with each of the following sentences? <br>Make sure that your responses sum up to 100.</p>",,123511,22,html-multi-slider-response,,20
88,30_while,0.0-23.0,,93,7,0,11950,I'll be here for a bit,I'll be here for a while,<em>something else</em>,0,"<p><img src=""../proexpec/q/q_b_15.jpg"" class=""scaled-img"" /></p><p style=""font-size: 22px"">How likely do you think it is that the man will respond with each of the following sentences? <br>Make sure that your responses sum up to 100.</p>",,135728,23,html-multi-slider-response,,15
88,30_while,0.0-24.0,,50,0,50,16084,I'll be here for a bit,I'll be here for a while,<em>something else</em>,0,"<p><img src=""../proexpec/q/q_b_5.jpg"" class=""scaled-img"" /></p><p style=""font-size: 22px"">How likely do you think it is that the man will respond with each of the following sentences? <br>Make sure that your responses sum up to 100.</p>",,152078,24,html-multi-slider-response,,5
88,30_while,0.0-25.0,,4,90,6,12743,I'll be here for a bit,I'll be here for a while,<em>something else</em>,0,"<p><img src=""../proexpec/q/q_b_120.jpg"" class=""scaled-img"" /></p><p style=""font-size: 22px"">How likely do you think it is that the man will respond with each of the following sentences? <br>Make sure that your responses sum up to 100.</p>",,165084,25,html-multi-slider-response,,120
88,30_while,0.0-26.0,,15,85,0,9390,I'll be here for a bit,I'll be here for a while,<em>something else</em>,0,"<p><img src=""../proexpec/q/q_b_60.jpg"" class=""scaled-img"" /></p><p style=""font-size: 22px"">How likely do you think it is that the man will respond with each of the following sentences? <br>Make sure that your responses sum up to 100.</p>",,174736,26,html-multi-slider-response,,60
88,30_while,0.0-27.0,,25,75,0,21829,I'll be here for a bit,I'll be here for a while,<em>something else</em>,0,"<p><img src=""../proexpec/q/q_b_45.jpg"" class=""scaled-img"" /></p><p style=""font-size: 22px"">How likely do you think it is that the man will respond with each of the following sentences? <br>Make sure that your responses sum up to 100.</p>",,196843,27,html-multi-slider-response,,45
88,30_while,0.0-28.0,,10,90,0,9569,I'll be here for a bit,I'll be here for a while,<em>something else</em>,0,"<p><img src=""../proexpec/q/q_b_120.jpg"" class=""scaled-img"" /></p><p style=""font-size: 22px"">How likely do you think it is that the man will respond with each of the following sentences? <br>Make sure that your responses sum up to 100.</p>",,206678,28,html-multi-slider-response,,120
88,30_while,0.0-29.0,,5,5,90,8636,I'll be here for a bit,I'll be here for a while,<em>something else</em>,0,"<p><img src=""../proexpec/q/q_b_5.jpg"" class=""scaled-img"" /></p><p style=""font-size: 22px"">How likely do you think it is that the man will respond with each of the following sentences? <br>Make sure that your responses sum up to 100.</p>",,215567,29,html-multi-slider-response,,5
88,30_while,0.0-30.0,,40,55,5,12655,I'll be here for a bit,I'll be here for a while,<em>something else</em>,0,"<p><img src=""../proexpec/q/q_b_45.jpg"" class=""scaled-img"" /></p><p style=""font-size: 22px"">How likely do you think it is that the man will respond with each of the following sentences? <br>Make sure that your responses sum up to 100.</p>",,228482,30,html-multi-slider-response,,45
88,30_while,0.0-31.0,,15,5,80,17231,I'll be here for a bit,I'll be here for a while,<em>something else</em>,0,"<p><img src=""../proexpec/q/q_b_10.jpg"" class=""scaled-img"" /></p><p style=""font-size: 22px"">How likely do you think it is that the man will respond with each of the following sentences? <br>Make sure that your responses sum up to 100.</p>",,245971,31,html-multi-slider-response,,10
88,30_while,0.0-32.0,,40,60,0,9498,I'll be here for a bit,I'll be here for a while,<em>something else</em>,0,"<p><img src=""../proexpec/q/q_b_30.jpg"" class=""scaled-img"" /></p><p style=""font-size: 22px"">How likely do you think it is that the man will respond with each of the following sentences? <br>Make sure that your responses sum up to 100.</p>",,255722,32,html-multi-slider-response,,30
88,30_while,0.0-33.0,,20,70,10,11360,I'll be here for a bit,I'll be here for a while,<em>something else</em>,0,"<p><img src=""../proexpec/q/q_b_90.jpg"" class=""scaled-img"" /></p><p style=""font-size: 22px"">How likely do you think it is that the man will respond with each of the following sentences? <br>Make sure that your responses sum up to 100.</p>",,267340,33,html-multi-slider-response,,90
88,30_while,0.0-34.0,,16,84,0,6138,I'll be here for a bit,I'll be here for a while,<em>something else</em>,0,"<p><img src=""../proexpec/q/q_b_30.jpg"" class=""scaled-img"" /></p><p style=""font-size: 22px"">How likely do you think it is that the man will respond with each of the following sentences? <br>Make sure that your responses sum up to 100.</p>",,273737,34,html-multi-slider-response,,30
88,30_while,0.0-35.0,,22,78,0,5432,I'll be here for a bit,I'll be here for a while,<em>something else</em>,0,"<p><img src=""../proexpec/q/q_b_60.jpg"" class=""scaled-img"" /></p><p style=""font-size: 22px"">How likely do you think it is that the man will respond with each of the following sentences? <br>Make sure that your responses sum up to 100.</p>",,279430,35,html-multi-slider-response,,60
88,30_while,0.0-36.0,,80,20,0,5185,I'll be here for a bit,I'll be here for a while,<em>something else</em>,0,"<p><img src=""../proexpec/q/q_b_20.jpg"" class=""scaled-img"" /></p><p style=""font-size: 22px"">How likely do you think it is that the man will respond with each of the following sentences? <br>Make sure that your responses sum up to 100.</p>",,284867,36,html-multi-slider-response,,20
88,30_while,0.0-37.0,,14,77,9,5006,I'll be here for a bit,I'll be here for a while,<em>something else</em>,0,"<p><img src=""../proexpec/q/q_b_90.jpg"" class=""scaled-img"" /></p><p style=""font-size: 22px"">How likely do you think it is that the man will respond with each of the following sentences? <br>Make sure that your responses sum up to 100.</p>",,290140,37,html-multi-slider-response,,90
88,30_while,0.0-38.0,,30,7,63,8308,I'll be here for a bit,I'll be here for a while,<em>something else</em>,0,"<p><img src=""../proexpec/q/q_b_10.jpg"" class=""scaled-img"" /></p><p style=""font-size: 22px"">How likely do you think it is that the man will respond with each of the following sentences? <br>Make sure that your responses sum up to 100.</p>",,298713,38,html-multi-slider-response,,10
88,30_while,0.0-39.0,,84,11,5,6446,I'll be here for a bit,I'll be here for a while,<em>something else</em>,0,"<p><img src=""../proexpec/q/q_b_15.jpg"" class=""scaled-img"" /></p><p style=""font-size: 22px"">How likely do you think it is that the man will respond with each of the following sentences? <br>Make sure that your responses sum up to 100.</p>",,305410,39,html-multi-slider-response,,15
108,30_while,0.0-22.0,,0,100,0,8859,I'll be here for a bit,I'll be here for a while,<em>something else</em>,0,"<p><img src=""../proexpec/q/q_b_30.jpg"" class=""scaled-img"" /></p><p style=""font-size: 22px"">How likely do you think it is that the man will respond with each of the following sentences? <br>Make sure that your responses sum up to 100.</p>",,141407,22,html-multi-slider-response,,30
108,30_while,0.0-23.0,,100,0,0,4545,I'll be here for a bit,I'll be here for a while,<em>something else</em>,0,"<p><img src=""../proexpec/q/q_b_15.jpg"" class=""scaled-img"" /></p><p style=""font-size: 22px"">How likely do you think it is that the man will respond with each of the following sentences? <br>Make sure that your responses sum up to 100.</p>",,146205,23,html-multi-slider-response,,15
108,30_while,0.0-24.0,,38,0,62,10382,I'll be here for a bit,I'll be here for a while,<em>something else</em>,0,"<p><img src=""../proexpec/q/q_b_5.jpg"" class=""scaled-img"" /></p><p style=""font-size: 22px"">How likely do you think it is that the man will respond with each of the following sentences? <br>Make sure that your responses sum up to 100.</p>",,156841,24,html-multi-slider-response,,5
108,30_while,0.0-25.0,,0,17,83,9739,I'll be here for a bit,I'll be here for a while,<em>something else</em>,0,"<p><img src=""../proexpec/q/q_b_120.jpg"" class=""scaled-img"" /></p><p style=""font-size: 22px"">How likely do you think it is that the man will respond with each of the following sentences? <br>Make sure that your responses sum up to 100.</p>",,166834,25,html-multi-slider-response,,120
108,30_while,0.0-26.0,,0,52,48,7274,I'll be here for a bit,I'll be here for a while,<em>something else</em>,0,"<p><img src=""../proexpec/q/q_b_60.jpg"" class=""scaled-img"" /></p><p style=""font-size: 22px"">How likely do you think it is that the man will respond with each of the following sentences? <br>Make sure that your responses sum up to 100.</p>",,174362,26,html-multi-slider-response,,60
108,30_while,0.0-27.0,,27,47,26,7570,I'll be here for a bit,I'll be here for a while,<em>something else</em>,0,"<p><img src=""../proexpec/q/q_b_20.jpg"" class=""scaled-img"" /></p><p style=""font-size: 22px"">How likely do you think it is that the man will respond with each of the following sentences? <br>Make sure that your responses sum up to 100.</p>",,182185,27,html-multi-slider-response,,20
108,30_while,0.0-28.0,,0,76,24,6420,I'll be here for a bit,I'll be here for a while,<em>something else</em>,0,"<p><img src=""../proexpec/q/q_b_45.jpg"" class=""scaled-img"" /></p><p style=""font-size: 22px"">How likely do you think it is that the man will respond with each of the following sentences? <br>Make sure that your responses sum up to 100.</p>",,188858,28,html-multi-slider-response,,45
108,30_while,0.0-29.0,,100,0,0,5121,I'll be here for a bit,I'll be here for a while,<em>something else</em>,0,"<p><img src=""../proexpec/q/q_b_15.jpg"" class=""scaled-img"" /></p><p style=""font-size: 22px"">How likely do you think it is that the man will respond with each of the following sentences? <br>Make sure that your responses sum up to 100.</p>",,194232,29,html-multi-slider-response,,15
108,30_while,0.0-30.0,,0,48,52,7455,I'll be here for a bit,I'll be here for a while,<em>something else</em>,0,"<p><img src=""../proexpec/q/q_b_90.jpg"" class=""scaled-img"" /></p><p style=""font-size: 22px"">How likely do you think it is that the man will respond with each of the following sentences? <br>Make sure that your responses sum up to 100.</p>",,201941,30,html-multi-slider-response,,90
108,30_while,0.0-31.0,,38,0,62,7780,I'll be here for a bit,I'll be here for a while,<em>something else</em>,0,"<p><img src=""../proexpec/q/q_b_5.jpg"" class=""scaled-img"" /></p><p style=""font-size: 22px"">How likely do you think it is that the man will respond with each of the following sentences? <br>Make sure that your responses sum up to 100.</p>",,209975,31,html-multi-slider-response,,5
108,30_while,0.0-32.0,,0,100,0,3361,I'll be here for a bit,I'll be here for a while,<em>something else</em>,0,"<p><img src=""../proexpec/q/q_b_30.jpg"" class=""scaled-img"" /></p><p style=""font-size: 22px"">How likely do you think it is that the man will respond with each of the following sentences? <br>Make sure that your responses sum up to 100.</p>",,213590,32,html-multi-slider-response,,30
108,30_while,0.0-33.0,,0,59,41,7482,I'll be here for a bit,I'll be here for a while,<em>something else</em>,0,"<p><img src=""../proexpec/q/q_b_60.jpg"" class=""scaled-img"" /></p><p style=""font-size: 22px"">How likely do you think it is that the man will respond with each of the following sentences? <br>Make sure that your responses sum up to 100.</p>",,221326,33,html-multi-slider-response,,60
108,30_while,0.0-34.0,,69,0,31,6513,I'll be here for a bit,I'll be here for a while,<em>something else</em>,0,"<p><img src=""../proexpec/q/q_b_10.jpg"" class=""scaled-img"" /></p><p style=""font-size: 22px"">How likely do you think it is that the man will respond with each of the following sentences? <br>Make sure that your responses sum up to 100.</p>",,228093,34,html-multi-slider-response,,10
108,30_while,0.0-35.0,,44,56,0,10863,I'll be here for a bit,I'll be here for a while,<em>something else</em>,0,"<p><img src=""../proexpec/q/q_b_20.jpg"" class=""scaled-img"" /></p><p style=""font-size: 22px"">How likely do you think it is that the man will respond with each of the following sentences? <br>Make sure that your responses sum up to 100.</p>",,239209,35,html-multi-slider-response,,20
108,30_while,0.0-36.0,,0,82,18,6200,I'll be here for a bit,I'll be here for a while,<em>something else</em>,0,"<p><img src=""../proexpec/q/q_b_45.jpg"" class=""scaled-img"" /></p><p style=""font-size: 22px"">How likely do you think it is that the man will respond with each of the following sentences? <br>Make sure that your responses sum up to 100.</p>",,245662,36,html-multi-slider-response,,45
108,30_while,0.0-37.0,,91,0,9,9450,I'll be here for a bit,I'll be here for a while,<em>something else</em>,0,"<p><img src=""../proexpec/q/q_b_10.jpg"" class=""scaled-img"" /></p><p style=""font-size: 22px"">How likely do you think it is that the man will respond with each of the following sentences? <br>Make sure that your responses sum up to 100.</p>",,255365,37,html-multi-slider-response,,10
108,30_while,0.0-38.0,,0,46,54,5748,I'll be here for a bit,I'll be here for a while,<em>something else</em>,0,"<p><img src=""../proexpec/q/q_b_90.jpg"" class=""scaled-img"" /></p><p style=""font-size: 22px"">How likely do you think it is that the man will respond with each of the following sentences? <br>Make sure that your responses sum up to 100.</p>",,261366,38,html-multi-slider-response,,90
108,30_while,0.0-39.0,,0,38,62,3907,I'll be here for a bit,I'll be here for a while,<em>something else</em>,0,"<p><img src=""../proexpec/q/q_b_120.jpg"" class=""scaled-img"" /></p><p style=""font-size: 22px"">How likely do you think it is that the man will respond with each of the following sentences? <br>Make sure that your responses sum up to 100.</p>",,265526,39,html-multi-slider-response,,120
120,30_while,0.0-22.0,,0,99,1,19950,I'll be here for a bit,I'll be here for a while,<em>something else</em>,0,"<p><img src=""../proexpec/q/q_b_45.jpg"" class=""scaled-img"" /></p><p style=""font-size: 22px"">How likely do you think it is that the man will respond with each of the following sentences? <br>Make sure that your responses sum up to 100.</p>",,261901,22,html-multi-slider-response,,45
120,30_while,0.0-23.0,,1,85,14,15639,I'll be here for a bit,I'll be here for a while,<em>something else</em>,0,"<p><img src=""../proexpec/q/q_b_90.jpg"" class=""scaled-img"" /></p><p style=""font-size: 22px"">How likely do you think it is that the man will respond with each of the following sentences? <br>Make sure that your responses sum up to 100.</p>",,277801,23,html-multi-slider-response,,90
120,30_while,0.0-24.0,,1,85,14,10882,I'll be here for a bit,I'll be here for a while,<em>something else</em>,0,"<p><img src=""../proexpec/q/q_b_45.jpg"" class=""scaled-img"" /></p><p style=""font-size: 22px"">How likely do you think it is that the man will respond with each of the following sentences? <br>Make sure that your responses sum up to 100.</p>",,288945,24,html-multi-slider-response,,45
120,30_while,0.0-25.0,,95,0,5,11477,I'll be here for a bit,I'll be here for a while,<em>something else</em>,0,"<p><img src=""../proexpec/q/q_b_5.jpg"" class=""scaled-img"" /></p><p style=""font-size: 22px"">How likely do you think it is that the man will respond with each of the following sentences? <br>Make sure that your responses sum up to 100.</p>",,300677,25,html-multi-slider-response,,5
120,30_while,0.0-26.0,,0,90,10,8360,I'll be here for a bit,I'll be here for a while,<em>something else</em>,0,"<p><img src=""../proexpec/q/q_b_30.jpg"" class=""scaled-img"" /></p><p style=""font-size: 22px"">How likely do you think it is that the man will respond with each of the following sentences? <br>Make sure that your responses sum up to 100.</p>",,309297,26,html-multi-slider-response,,30
120,30_while,0.0-27.0,,15,85,0,12124,I'll be here for a bit,I'll be here for a while,<em>something else</em>,0,"<p><img src=""../proexpec/q/q_b_20.jpg"" class=""scaled-img"" /></p><p style=""font-size: 22px"">How likely do you think it is that the man will respond with each of the following sentences? <br>Make sure that your responses sum up to 100.</p>",,321680,27,html-multi-slider-response,,20
120,30_while,0.0-28.0,,0,100,0,3664,I'll be here for a bit,I'll be here for a while,<em>something else</em>,0,"<p><img src=""../proexpec/q/q_b_90.jpg"" class=""scaled-img"" /></p><p style=""font-size: 22px"">How likely do you think it is that the man will respond with each of the following sentences? <br>Make sure that your responses sum up to 100.</p>",,325605,28,html-multi-slider-response,,90
120,30_while,0.0-29.0,,0,100,0,2636,I'll be here for a bit,I'll be here for a while,<em>something else</em>,0,"<p><img src=""../proexpec/q/q_b_120.jpg"" class=""scaled-img"" /></p><p style=""font-size: 22px"">How likely do you think it is that the man will respond with each of the following sentences? <br>Make sure that your responses sum up to 100.</p>",,328497,29,html-multi-slider-response,,120
120,30_while,0.0-30.0,,6,94,0,5191,I'll be here for a bit,I'll be here for a while,<em>something else</em>,0,"<p><img src=""../proexpec/q/q_b_30.jpg"" class=""scaled-img"" /></p><p style=""font-size: 22px"">How likely do you think it is that the man will respond with each of the following sentences? <br>Make sure that your responses sum up to 100.</p>",,333945,30,html-multi-slider-response,,30
120,30_while,0.0-31.0,,100,0,0,5175,I'll be here for a bit,I'll be here for a while,<em>something else</em>,0,"<p><img src=""../proexpec/q/q_b_10.jpg"" class=""scaled-img"" /></p><p style=""font-size: 22px"">How likely do you think it is that the man will respond with each of the following sentences? <br>Make sure that your responses sum up to 100.</p>",,339377,31,html-multi-slider-response,,10
120,30_while,0.0-32.0,,14,86,0,8594,I'll be here for a bit,I'll be here for a while,<em>something else</em>,0,"<p><img src=""../proexpec/q/q_b_20.jpg"" class=""scaled-img"" /></p><p style=""font-size: 22px"">How likely do you think it is that the man will respond with each of the following sentences? <br>Make sure that your responses sum up to 100.</p>",,348237,32,html-multi-slider-response,,20
120,30_while,0.0-33.0,,100,0,0,3054,I'll be here for a bit,I'll be here for a while,<em>something else</em>,0,"<p><img src=""../proexpec/q/q_b_10.jpg"" class=""scaled-img"" /></p><p style=""font-size: 22px"">How likely do you think it is that the man will respond with each of the following sentences? <br>Make sure that your responses sum up to 100.</p>",,351545,33,html-multi-slider-response,,10
120,30_while,0.0-34.0,,0,100,0,2878,I'll be here for a bit,I'll be here for a while,<em>something else</em>,0,"<p><img src=""../proexpec/q/q_b_60.jpg"" class=""scaled-img"" /></p><p style=""font-size: 22px"">How likely do you think it is that the man will respond with each of the following sentences? <br>Make sure that your responses sum up to 100.</p>",,354684,34,html-multi-slider-response,,60
120,30_while,0.0-35.0,,100,0,0,2570,I'll be here for a bit,I'll be here for a while,<em>something else</em>,0,"<p><img src=""../proexpec/q/q_b_15.jpg"" class=""scaled-img"" /></p><p style=""font-size: 22px"">How likely do you think it is that the man will respond with each of the following sentences? <br>Make sure that your responses sum up to 100.</p>",,357521,35,html-multi-slider-response,,15
120,30_while,0.0-36.0,,0,100,0,2125,I'll be here for a bit,I'll be here for a while,<em>something else</em>,0,"<p><img src=""../proexpec/q/q_b_60.jpg"" class=""scaled-img"" /></p><p style=""font-size: 22px"">How likely do you think it is that the man will respond with each of the following sentences? <br>Make sure that your responses sum up to 100.</p>",,359909,36,html-multi-slider-response,,60
120,30_while,0.0-37.0,,100,0,0,3373,I'll be here for a bit,I'll be here for a while,<em>something else</em>,0,"<p><img src=""../proexpec/q/q_b_15.jpg"" class=""scaled-img"" /></p><p style=""font-size: 22px"">How likely do you think it is that the man will respond with each of the following sentences? <br>Make sure that your responses sum up to 100.</p>",,363537,37,html-multi-slider-response,,15
120,30_while,0.0-38.0,,0,100,0,3466,I'll be here for a bit,I'll be here for a while,<em>something else</em>,0,"<p><img src=""../proexpec/q/q_b_120.jpg"" class=""scaled-img"" /></p><p style=""font-size: 22px"">How likely do you think it is that the man will respond with each of the following sentences? <br>Make sure that your responses sum up to 100.</p>",,367266,38,html-multi-slider-response,,120
120,30_while,0.0-39.0,,100,0,0,3471,I'll be here for a bit,I'll be here for a while,<em>something else</em>,0,"<p><img src=""../proexpec/q/q_b_5.jpg"" class=""scaled-img"" /></p><p style=""font-size: 22px"">How likely do you think it is that the man will respond with each of the following sentences? <br>Make sure that your responses sum up to 100.</p>",,370990,39,html-multi-slider-response,,5
72,30_while,0.0-22.0,,0,100,0,32868,I'll be here for a bit,I'll be here for a while,<em>something else</em>,0,"<p><img src=""../proexpec/q/q_b_30.jpg"" class=""scaled-img"" /></p><p style=""font-size: 22px"">How likely do you think it is that the man will respond with each of the following sentences? <br>Make sure that your responses sum up to 100.</p>",,367317,22,html-multi-slider-response,,30
72,30_while,0.0-23.0,,0,100,0,17453,I'll be here for a bit,I'll be here for a while,<em>something else</em>,0,"<p><img src=""../proexpec/q/q_b_90.jpg"" class=""scaled-img"" /></p><p style=""font-size: 22px"">How likely do you think it is that the man will respond with each of the following sentences? <br>Make sure that your responses sum up to 100.</p>",,385027,23,html-multi-slider-response,,90
72,30_while,0.0-24.0,,100,0,0,17334,I'll be here for a bit,I'll be here for a while,<em>something else</em>,0,"<p><img src=""../proexpec/q/q_b_20.jpg"" class=""scaled-img"" /></p><p style=""font-size: 22px"">How likely do you think it is that the man will respond with each of the following sentences? <br>Make sure that your responses sum up to 100.</p>",,402625,24,html-multi-slider-response,,20
72,30_while,0.0-25.0,,100,0,0,6691,I'll be here for a bit,I'll be here for a while,<em>something else</em>,0,"<p><img src=""../proexpec/q/q_b_15.jpg"" class=""scaled-img"" /></p><p style=""font-size: 22px"">How likely do you think it is that the man will respond with each of the following sentences? <br>Make sure that your responses sum up to 100.</p>",,409575,25,html-multi-slider-response,,15
72,30_while,0.0-26.0,,100,0,0,5886,I'll be here for a bit,I'll be here for a while,<em>something else</em>,0,"<p><img src=""../proexpec/q/q_b_5.jpg"" class=""scaled-img"" /></p><p style=""font-size: 22px"">How likely do you think it is that the man will respond with each of the following sentences? <br>Make sure that your responses sum up to 100.</p>",,415715,26,html-multi-slider-response,,5
72,30_while,0.0-27.0,,0,100,0,8565,I'll be here for a bit,I'll be here for a while,<em>something else</em>,0,"<p><img src=""../proexpec/q/q_b_60.jpg"" class=""scaled-img"" /></p><p style=""font-size: 22px"">How likely do you think it is that the man will respond with each of the following sentences? <br>Make sure that your responses sum up to 100.</p>",,424546,27,html-multi-slider-response,,60
72,30_while,0.0-28.0,,100,0,0,10839,I'll be here for a bit,I'll be here for a while,<em>something else</em>,0,"<p><img src=""../proexpec/q/q_b_20.jpg"" class=""scaled-img"" /></p><p style=""font-size: 22px"">How likely do you think it is that the man will respond with each of the following sentences? <br>Make sure that your responses sum up to 100.</p>",,435648,28,html-multi-slider-response,,20
72,30_while,0.0-29.0,,100,0,0,9354,I'll be here for a bit,I'll be here for a while,<em>something else</em>,0,"<p><img src=""../proexpec/q/q_b_10.jpg"" class=""scaled-img"" /></p><p style=""font-size: 22px"">How likely do you think it is that the man will respond with each of the following sentences? <br>Make sure that your responses sum up to 100.</p>",,445256,29,html-multi-slider-response,,10
72,30_while,0.0-30.0,,0,100,0,7937,I'll be here for a bit,I'll be here for a while,<em>something else</em>,0,"<p><img src=""../proexpec/q/q_b_30.jpg"" class=""scaled-img"" /></p><p style=""font-size: 22px"">How likely do you think it is that the man will respond with each of the following sentences? <br>Make sure that your responses sum up to 100.</p>",,453452,30,html-multi-slider-response,,30
72,30_while,0.0-31.0,,0,100,0,9666,I'll be here for a bit,I'll be here for a while,<em>something else</em>,0,"<p><img src=""../proexpec/q/q_b_60.jpg"" class=""scaled-img"" /></p><p style=""font-size: 22px"">How likely do you think it is that the man will respond with each of the following sentences? <br>Make sure that your responses sum up to 100.</p>",,463376,31,html-multi-slider-response,,60
72,30_while,0.0-32.0,,0,100,0,8511,I'll be here for a bit,I'll be here for a while,<em>something else</em>,0,"<p><img src=""../proexpec/q/q_b_120.jpg"" class=""scaled-img"" /></p><p style=""font-size: 22px"">How likely do you think it is that the man will respond with each of the following sentences? <br>Make sure that your responses sum up to 100.</p>",,472152,32,html-multi-slider-response,,120
72,30_while,0.0-33.0,,0,100,0,6460,I'll be here for a bit,I'll be here for a while,<em>something else</em>,0,"<p><img src=""../proexpec/q/q_b_90.jpg"" class=""scaled-img"" /></p><p style=""font-size: 22px"">How likely do you think it is that the man will respond with each of the following sentences? <br>Make sure that your responses sum up to 100.</p>",,478866,33,html-multi-slider-response,,90
72,30_while,0.0-34.0,,100,0,0,7309,I'll be here for a bit,I'll be here for a while,<em>something else</em>,0,"<p><img src=""../proexpec/q/q_b_5.jpg"" class=""scaled-img"" /></p><p style=""font-size: 22px"">How likely do you think it is that the man will respond with each of the following sentences? <br>Make sure that your responses sum up to 100.</p>",,486440,34,html-multi-slider-response,,5
72,30_while,0.0-35.0,,0,100,0,5254,I'll be here for a bit,I'll be here for a while,<em>something else</em>,0,"<p><img src=""../proexpec/q/q_b_120.jpg"" class=""scaled-img"" /></p><p style=""font-size: 22px"">How likely do you think it is that the man will respond with each of the following sentences? <br>Make sure that your responses sum up to 100.</p>",,491955,35,html-multi-slider-response,,120
72,30_while,0.0-36.0,,0,100,0,6173,I'll be here for a bit,I'll be here for a while,<em>something else</em>,0,"<p><img src=""../proexpec/q/q_b_45.jpg"" class=""scaled-img"" /></p><p style=""font-size: 22px"">How likely do you think it is that the man will respond with each of the following sentences? <br>Make sure that your responses sum up to 100.</p>",,498382,36,html-multi-slider-response,,45
72,30_while,0.0-37.0,,100,0,0,9832,I'll be here for a bit,I'll be here for a while,<em>something else</em>,0,"<p><img src=""../proexpec/q/q_b_15.jpg"" class=""scaled-img"" /></p><p style=""font-size: 22px"">How likely do you think it is that the man will respond with each of the following sentences? <br>Make sure that your responses sum up to 100.</p>",,508468,37,html-multi-slider-response,,15
72,30_while,0.0-38.0,,100,0,0,6618,I'll be here for a bit,I'll be here for a while,<em>something else</em>,0,"<p><img src=""../proexpec/q/q_b_10.jpg"" class=""scaled-img"" /></p><p style=""font-size: 22px"">How likely do you think it is that the man will respond with each of the following sentences? <br>Make sure that your responses sum up to 100.</p>",,515340,38,html-multi-slider-response,,10
72,30_while,0.0-39.0,,0,100,0,7389,I'll be here for a bit,I'll be here for a while,<em>something else</em>,0,"<p><img src=""../proexpec/q/q_b_45.jpg"" class=""scaled-img"" /></p><p style=""font-size: 22px"">How likely do you think it is that the man will respond with each of the following sentences? <br>Make sure that your responses sum up to 100.</p>",,522984,39,html-multi-slider-response,,45
106,30_while,0.0-22.0,,0,100,0,13179,I'll be here for a bit,I'll be here for a while,<em>something else</em>,0,"<p><img src=""../proexpec/q/q_b_120.jpg"" class=""scaled-img"" /></p><p style=""font-size: 22px"">How likely do you think it is that the man will respond with each of the following sentences? <br>Make sure that your responses sum up to 100.</p>",,209126,22,html-multi-slider-response,,120
106,30_while,0.0-23.0,,0,100,0,8995,I'll be here for a bit,I'll be here for a while,<em>something else</em>,0,"<p><img src=""../proexpec/q/q_b_90.jpg"" class=""scaled-img"" /></p><p style=""font-size: 22px"">How likely do you think it is that the man will respond with each of the following sentences? <br>Make sure that your responses sum up to 100.</p>",,218378,23,html-multi-slider-response,,90
106,30_while,0.0-24.0,,100,0,0,27345,I'll be here for a bit,I'll be here for a while,<em>something else</em>,0,"<p><img src=""../proexpec/q/q_b_10.jpg"" class=""scaled-img"" /></p><p style=""font-size: 22px"">How likely do you think it is that the man will respond with each of the following sentences? <br>Make sure that your responses sum up to 100.</p>",,245968,24,html-multi-slider-response,,10
106,30_while,0.0-25.0,,60,40,0,12000,I'll be here for a bit,I'll be here for a while,<em>something else</em>,0,"<p><img src=""../proexpec/q/q_b_20.jpg"" class=""scaled-img"" /></p><p style=""font-size: 22px"">How likely do you think it is that the man will respond with each of the following sentences? <br>Make sure that your responses sum up to 100.</p>",,258234,25,html-multi-slider-response,,20
106,30_while,0.0-26.0,,5,95,0,12269,I'll be here for a bit,I'll be here for a while,<em>something else</em>,0,"<p><img src=""../proexpec/q/q_b_30.jpg"" class=""scaled-img"" /></p><p style=""font-size: 22px"">How likely do you think it is that the man will respond with each of the following sentences? <br>Make sure that your responses sum up to 100.</p>",,270760,26,html-multi-slider-response,,30
106,30_while,0.0-27.0,,0,100,0,8685,I'll be here for a bit,I'll be here for a while,<em>something else</em>,0,"<p><img src=""../proexpec/q/q_b_120.jpg"" class=""scaled-img"" /></p><p style=""font-size: 22px"">How likely do you think it is that the man will respond with each of the following sentences? <br>Make sure that your responses sum up to 100.</p>",,279705,27,html-multi-slider-response,,120
106,30_while,0.0-28.0,,0,100,0,5829,I'll be here for a bit,I'll be here for a while,<em>something else</em>,0,"<p><img src=""../proexpec/q/q_b_45.jpg"" class=""scaled-img"" /></p><p style=""font-size: 22px"">How likely do you think it is that the man will respond with each of the following sentences? <br>Make sure that your responses sum up to 100.</p>",,285798,28,html-multi-slider-response,,45
106,30_while,0.0-29.0,,100,0,0,4617,I'll be here for a bit,I'll be here for a while,<em>something else</em>,0,"<p><img src=""../proexpec/q/q_b_10.jpg"" class=""scaled-img"" /></p><p style=""font-size: 22px"">How likely do you think it is that the man will respond with each of the following sentences? <br>Make sure that your responses sum up to 100.</p>",,290678,29,html-multi-slider-response,,10
106,30_while,0.0-30.0,,30,70,0,20216,I'll be here for a bit,I'll be here for a while,<em>something else</em>,0,"<p><img src=""../proexpec/q/q_b_20.jpg"" class=""scaled-img"" /></p><p style=""font-size: 22px"">How likely do you think it is that the man will respond with each of the following sentences? <br>Make sure that your responses sum up to 100.</p>",,311154,30,html-multi-slider-response,,20
106,30_while,0.0-31.0,,0,100,0,4903,I'll be here for a bit,I'll be here for a while,<em>something else</em>,0,"<p><img src=""../proexpec/q/q_b_45.jpg"" class=""scaled-img"" /></p><p style=""font-size: 22px"">How likely do you think it is that the man will respond with each of the following sentences? <br>Make sure that your responses sum up to 100.</p>",,316314,31,html-multi-slider-response,,45
106,30_while,0.0-32.0,,100,0,0,3156,I'll be here for a bit,I'll be here for a while,<em>something else</em>,0,"<p><img src=""../proexpec/q/q_b_5.jpg"" class=""scaled-img"" /></p><p style=""font-size: 22px"">How likely do you think it is that the man will respond with each of the following sentences? <br>Make sure that your responses sum up to 100.</p>",,319733,32,html-multi-slider-response,,5
106,30_while,0.0-33.0,,0,100,0,3033,I'll be here for a bit,I'll be here for a while,<em>something else</em>,0,"<p><img src=""../proexpec/q/q_b_90.jpg"" class=""scaled-img"" /></p><p style=""font-size: 22px"">How likely do you think it is that the man will respond with each of the following sentences? <br>Make sure that your responses sum up to 100.</p>",,323020,33,html-multi-slider-response,,90
106,30_while,0.0-34.0,,0,100,0,6722,I'll be here for a bit,I'll be here for a while,<em>something else</em>,0,"<p><img src=""../proexpec/q/q_b_60.jpg"" class=""scaled-img"" /></p><p style=""font-size: 22px"">How likely do you think it is that the man will respond with each of the following sentences? <br>Make sure that your responses sum up to 100.</p>",,330006,34,html-multi-slider-response,,60
106,30_while,0.0-35.0,,0,100,0,3738,I'll be here for a bit,I'll be here for a while,<em>something else</em>,0,"<p><img src=""../proexpec/q/q_b_30.jpg"" class=""scaled-img"" /></p><p style=""font-size: 22px"">How likely do you think it is that the man will respond with each of the following sentences? <br>Make sure that your responses sum up to 100.</p>",,334015,35,html-multi-slider-response,,30
106,30_while,0.0-36.0,,80,20,0,11036,I'll be here for a bit,I'll be here for a while,<em>something else</em>,0,"<p><img src=""../proexpec/q/q_b_15.jpg"" class=""scaled-img"" /></p><p style=""font-size: 22px"">How likely do you think it is that the man will respond with each of the following sentences? <br>Make sure that your responses sum up to 100.</p>",,345304,36,html-multi-slider-response,,15
106,30_while,0.0-37.0,,0,100,0,3344,I'll be here for a bit,I'll be here for a while,<em>something else</em>,0,"<p><img src=""../proexpec/q/q_b_60.jpg"" class=""scaled-img"" /></p><p style=""font-size: 22px"">How likely do you think it is that the man will respond with each of the following sentences? <br>Make sure that your responses sum up to 100.</p>",,348906,37,html-multi-slider-response,,60
106,30_while,0.0-38.0,,100,0,0,2633,I'll be here for a bit,I'll be here for a while,<em>something else</em>,0,"<p><img src=""../proexpec/q/q_b_5.jpg"" class=""scaled-img"" /></p><p style=""font-size: 22px"">How likely do you think it is that the man will respond with each of the following sentences? <br>Make sure that your responses sum up to 100.</p>",,351792,38,html-multi-slider-response,,5
106,30_while,0.0-39.0,,100,0,0,2848,I'll be here for a bit,I'll be here for a while,<em>something else</em>,0,"<p><img src=""../proexpec/q/q_b_15.jpg"" class=""scaled-img"" /></p><p style=""font-size: 22px"">How likely do you think it is that the man will respond with each of the following sentences? <br>Make sure that your responses sum up to 100.</p>",,354901,39,html-multi-slider-response,,15
124,30_while,0.0-22.0,,24,76,0,14782,I'll be here for a bit,I'll be here for a while,<em>something else</em>,0,"<p><img src=""../proexpec/q/q_b_30.jpg"" class=""scaled-img"" /></p><p style=""font-size: 22px"">How likely do you think it is that the man will respond with each of the following sentences? <br>Make sure that your responses sum up to 100.</p>",,1619659,22,html-multi-slider-response,,30
124,30_while,0.0-23.0,,8,92,0,10185,I'll be here for a bit,I'll be here for a while,<em>something else</em>,0,"<p><img src=""../proexpec/q/q_b_90.jpg"" class=""scaled-img"" /></p><p style=""font-size: 22px"">How likely do you think it is that the man will respond with each of the following sentences? <br>Make sure that your responses sum up to 100.</p>",,1630097,23,html-multi-slider-response,,90
124,30_while,0.0-24.0,,0,99,0,18474,I'll be here for a bit,I'll be here for a while,<em>something else</em>,0,"<p><img src=""../proexpec/q/q_b_60.jpg"" class=""scaled-img"" /></p><p style=""font-size: 22px"">How likely do you think it is that the man will respond with each of the following sentences? <br>Make sure that your responses sum up to 100.</p>",,1648839,24,html-multi-slider-response,,60
124,30_while,0.0-25.0,,100,0,0,3833,I'll be here for a bit,I'll be here for a while,<em>something else</em>,0,"<p><img src=""../proexpec/q/q_b_15.jpg"" class=""scaled-img"" /></p><p style=""font-size: 22px"">How likely do you think it is that the man will respond with each of the following sentences? <br>Make sure that your responses sum up to 100.</p>",,1652932,25,html-multi-slider-response,,15
124,30_while,0.0-26.0,,83,17,0,7367,I'll be here for a bit,I'll be here for a while,<em>something else</em>,0,"<p><img src=""../proexpec/q/q_b_20.jpg"" class=""scaled-img"" /></p><p style=""font-size: 22px"">How likely do you think it is that the man will respond with each of the following sentences? <br>Make sure that your responses sum up to 100.</p>",,1660556,26,html-multi-slider-response,,20
124,30_while,0.0-27.0,,60,40,0,4423,I'll be here for a bit,I'll be here for a while,<em>something else</em>,0,"<p><img src=""../proexpec/q/q_b_10.jpg"" class=""scaled-img"" /></p><p style=""font-size: 22px"">How likely do you think it is that the man will respond with each of the following sentences? <br>Make sure that your responses sum up to 100.</p>",,1665244,27,html-multi-slider-response,,10
124,30_while,0.0-28.0,,93,7,0,4702,I'll be here for a bit,I'll be here for a while,<em>something else</em>,0,"<p><img src=""../proexpec/q/q_b_10.jpg"" class=""scaled-img"" /></p><p style=""font-size: 22px"">How likely do you think it is that the man will respond with each of the following sentences? <br>Make sure that your responses sum up to 100.</p>",,1670206,28,html-multi-slider-response,,10
124,30_while,0.0-29.0,,40,60,0,8156,I'll be here for a bit,I'll be here for a while,<em>something else</em>,0,"<p><img src=""../proexpec/q/q_b_20.jpg"" class=""scaled-img"" /></p><p style=""font-size: 22px"">How likely do you think it is that the man will respond with each of the following sentences? <br>Make sure that your responses sum up to 100.</p>",,1678616,29,html-multi-slider-response,,20
124,30_while,0.0-30.0,,15,85,0,3397,I'll be here for a bit,I'll be here for a while,<em>something else</em>,0,"<p><img src=""../proexpec/q/q_b_45.jpg"" class=""scaled-img"" /></p><p style=""font-size: 22px"">How likely do you think it is that the man will respond with each of the following sentences? <br>Make sure that your responses sum up to 100.</p>",,1682279,30,html-multi-slider-response,,45
124,30_while,0.0-31.0,,0,100,0,2081,I'll be here for a bit,I'll be here for a while,<em>something else</em>,0,"<p><img src=""../proexpec/q/q_b_60.jpg"" class=""scaled-img"" /></p><p style=""font-size: 22px"">How likely do you think it is that the man will respond with each of the following sentences? <br>Make sure that your responses sum up to 100.</p>",,1684624,31,html-multi-slider-response,,60
124,30_while,0.0-32.0,,0,85,15,7291,I'll be here for a bit,I'll be here for a while,<em>something else</em>,0,"<p><img src=""../proexpec/q/q_b_120.jpg"" class=""scaled-img"" /></p><p style=""font-size: 22px"">How likely do you think it is that the man will respond with each of the following sentences? <br>Make sure that your responses sum up to 100.</p>",,1692173,32,html-multi-slider-response,,120
124,30_while,0.0-33.0,,0,84,16,2805,I'll be here for a bit,I'll be here for a while,<em>something else</em>,0,"<p><img src=""../proexpec/q/q_b_90.jpg"" class=""scaled-img"" /></p><p style=""font-size: 22px"">How likely do you think it is that the man will respond with each of the following sentences? <br>Make sure that your responses sum up to 100.</p>",,1695239,33,html-multi-slider-response,,90
124,30_while,0.0-34.0,,42,58,0,11303,I'll be here for a bit,I'll be here for a while,<em>something else</em>,0,"<p><img src=""../proexpec/q/q_b_30.jpg"" class=""scaled-img"" /></p><p style=""font-size: 22px"">How likely do you think it is that the man will respond with each of the following sentences? <br>Make sure that your responses sum up to 100.</p>",,1706808,34,html-multi-slider-response,,30
124,30_while,0.0-35.0,,0,77,23,5181,I'll be here for a bit,I'll be here for a while,<em>something else</em>,0,"<p><img src=""../proexpec/q/q_b_120.jpg"" class=""scaled-img"" /></p><p style=""font-size: 22px"">How likely do you think it is that the man will respond with each of the following sentences? <br>Make sure that your responses sum up to 100.</p>",,1712255,35,html-multi-slider-response,,120
124,30_while,0.0-36.0,,100,0,0,7751,I'll be here for a bit,I'll be here for a while,<em>something else</em>,0,"<p><img src=""../proexpec/q/q_b_5.jpg"" class=""scaled-img"" /></p><p style=""font-size: 22px"">How likely do you think it is that the man will respond with each of the following sentences? <br>Make sure that your responses sum up to 100.</p>",,1720270,36,html-multi-slider-response,,5
124,30_while,0.0-37.0,,94,0,6,5332,I'll be here for a bit,I'll be here for a while,<em>something else</em>,0,"<p><img src=""../proexpec/q/q_b_15.jpg"" class=""scaled-img"" /></p><p style=""font-size: 22px"">How likely do you think it is that the man will respond with each of the following sentences? <br>Make sure that your responses sum up to 100.</p>",,1725867,37,html-multi-slider-response,,15
