workerid,proliferate.condition,internal_node_id,response,response_0,response_1,response_2,response_3,rt,slider_0,slider_1,slider_2,slider_3,slider_start,stimulus,success,time_elapsed,trial_index,trial_type,error,time_value
12,Condition 1,0.0-5.0,,20,60,10,10,24994,I'm gonna lie down for a while,I'm gonna lie down for a bit,I'm gonna lie down for some time,something else,0,"<p><img src=""../proexpec/t/t_b_60.jpg"" class=""scaled-img"" /></p><p>How likely do you think it is that someone would use these sentences? <br> Make sure that your responses sum up to one hundred percent.</p>",,68666,5,html-multi-slider-response,,60
12,Condition 1,0.0-6.0,,20,60,10,10,36813,I'm gonna lie down for a while,I'm gonna lie down for a bit,I'm gonna lie down for some time,something else,0,"<p><img src=""../proexpec/t/t_b_75.jpg"" class=""scaled-img"" /></p><p>How likely do you think it is that someone would use these sentences? <br> Make sure that your responses sum up to one hundred percent.</p>",,105733,6,html-multi-slider-response,,75
12,Condition 1,0.0-7.0,,20,60,10,10,19630,I'm gonna lie down for a while,I'm gonna lie down for a bit,I'm gonna lie down for some time,something else,0,"<p><img src=""../proexpec/t/t_b_60.jpg"" class=""scaled-img"" /></p><p>How likely do you think it is that someone would use these sentences? <br> Make sure that your responses sum up to one hundred percent.</p>",,125616,7,html-multi-slider-response,,60
12,Condition 1,0.0-8.0,,20,60,10,10,13779,I'm gonna lie down for a while,I'm gonna lie down for a bit,I'm gonna lie down for some time,something else,0,"<p><img src=""../proexpec/t/t_b_5.jpg"" class=""scaled-img"" /></p><p>How likely do you think it is that someone would use these sentences? <br> Make sure that your responses sum up to one hundred percent.</p>",,139649,8,html-multi-slider-response,,5
12,Condition 1,0.0-9.0,,20,60,10,10,16378,I'm gonna lie down for a while,I'm gonna lie down for a bit,I'm gonna lie down for some time,something else,0,"<p><img src=""../proexpec/t/t_b_120.jpg"" class=""scaled-img"" /></p><p>How likely do you think it is that someone would use these sentences? <br> Make sure that your responses sum up to one hundred percent.</p>",,156284,9,html-multi-slider-response,,120
12,Condition 1,0.0-10.0,,20,60,10,10,16759,I'm gonna lie down for a while,I'm gonna lie down for a bit,I'm gonna lie down for some time,something else,0,"<p><img src=""../proexpec/t/t_b_30.jpg"" class=""scaled-img"" /></p><p>How likely do you think it is that someone would use these sentences? <br> Make sure that your responses sum up to one hundred percent.</p>",,173297,10,html-multi-slider-response,,30
12,Condition 1,0.0-11.0,,20,60,10,10,11463,I'm gonna lie down for a while,I'm gonna lie down for a bit,I'm gonna lie down for some time,something else,0,"<p><img src=""../proexpec/t/t_b_75.jpg"" class=""scaled-img"" /></p><p>How likely do you think it is that someone would use these sentences? <br> Make sure that your responses sum up to one hundred percent.</p>",,185014,11,html-multi-slider-response,,75
12,Condition 1,0.0-12.0,,20,60,10,10,10628,I'm gonna lie down for a while,I'm gonna lie down for a bit,I'm gonna lie down for some time,something else,0,"<p><img src=""../proexpec/t/t_b_45.jpg"" class=""scaled-img"" /></p><p>How likely do you think it is that someone would use these sentences? <br> Make sure that your responses sum up to one hundred percent.</p>",,195897,12,html-multi-slider-response,,45
12,Condition 1,0.0-13.0,,20,60,10,10,10831,I'm gonna lie down for a while,I'm gonna lie down for a bit,I'm gonna lie down for some time,something else,0,"<p><img src=""../proexpec/t/t_b_45.jpg"" class=""scaled-img"" /></p><p>How likely do you think it is that someone would use these sentences? <br> Make sure that your responses sum up to one hundred percent.</p>",,206981,13,html-multi-slider-response,,45
12,Condition 1,0.0-14.0,,20,60,10,10,11292,I'm gonna lie down for a while,I'm gonna lie down for a bit,I'm gonna lie down for some time,something else,0,"<p><img src=""../proexpec/t/t_b_90.jpg"" class=""scaled-img"" /></p><p>How likely do you think it is that someone would use these sentences? <br> Make sure that your responses sum up to one hundred percent.</p>",,218527,14,html-multi-slider-response,,90
12,Condition 1,0.0-15.0,,20,60,10,10,11625,I'm gonna lie down for a while,I'm gonna lie down for a bit,I'm gonna lie down for some time,something else,0,"<p><img src=""../proexpec/t/t_b_5.jpg"" class=""scaled-img"" /></p><p>How likely do you think it is that someone would use these sentences? <br> Make sure that your responses sum up to one hundred percent.</p>",,230407,15,html-multi-slider-response,,5
12,Condition 1,0.0-16.0,,20,60,10,10,17472,I'm gonna lie down for a while,I'm gonna lie down for a bit,I'm gonna lie down for some time,something else,0,"<p><img src=""../proexpec/t/t_b_15.jpg"" class=""scaled-img"" /></p><p>How likely do you think it is that someone would use these sentences? <br> Make sure that your responses sum up to one hundred percent.</p>",,248133,16,html-multi-slider-response,,15
12,Condition 1,0.0-17.0,,20,60,10,10,16980,I'm gonna lie down for a while,I'm gonna lie down for a bit,I'm gonna lie down for some time,something else,0,"<p><img src=""../proexpec/t/t_b_15.jpg"" class=""scaled-img"" /></p><p>How likely do you think it is that someone would use these sentences? <br> Make sure that your responses sum up to one hundred percent.</p>",,265365,17,html-multi-slider-response,,15
12,Condition 1,0.0-18.0,,20,60,10,10,9207,I'm gonna lie down for a while,I'm gonna lie down for a bit,I'm gonna lie down for some time,something else,0,"<p><img src=""../proexpec/t/t_b_10.jpg"" class=""scaled-img"" /></p><p>How likely do you think it is that someone would use these sentences? <br> Make sure that your responses sum up to one hundred percent.</p>",,274825,18,html-multi-slider-response,,10
12,Condition 1,0.0-19.0,,20,60,10,10,27136,I'm gonna lie down for a while,I'm gonna lie down for a bit,I'm gonna lie down for some time,something else,0,"<p><img src=""../proexpec/t/t_b_10.jpg"" class=""scaled-img"" /></p><p>How likely do you think it is that someone would use these sentences? <br> Make sure that your responses sum up to one hundred percent.</p>",,302213,19,html-multi-slider-response,,10
12,Condition 1,0.0-20.0,,26,55,10,9,11721,I'm gonna lie down for a while,I'm gonna lie down for a bit,I'm gonna lie down for some time,something else,0,"<p><img src=""../proexpec/t/t_b_30.jpg"" class=""scaled-img"" /></p><p>How likely do you think it is that someone would use these sentences? <br> Make sure that your responses sum up to one hundred percent.</p>",,314186,20,html-multi-slider-response,,30
12,Condition 1,0.0-21.0,,19,11,53,17,4390,I'm gonna lie down for a while,I'm gonna lie down for a bit,I'm gonna lie down for some time,something else,0,"<p><img src=""../proexpec/t/t_b_120.jpg"" class=""scaled-img"" /></p><p>How likely do you think it is that someone would use these sentences? <br> Make sure that your responses sum up to one hundred percent.</p>",,318827,21,html-multi-slider-response,,120
12,Condition 1,0.0-22.0,,26,52,22,0,6663,I'm gonna lie down for a while,I'm gonna lie down for a bit,I'm gonna lie down for some time,something else,0,"<p><img src=""../proexpec/t/t_b_90.jpg"" class=""scaled-img"" /></p><p>How likely do you think it is that someone would use these sentences? <br> Make sure that your responses sum up to one hundred percent.</p>",,325740,22,html-multi-slider-response,,90
32,Condition 1,0.0-5.0,,25,50,15,10,26588,I'm gonna lie down for a while,I'm gonna lie down for a bit,I'm gonna lie down for some time,something else,0,"<p><img src=""../proexpec/t/t_b_60.jpg"" class=""scaled-img"" /></p><p>How likely do you think it is that someone would use these sentences? <br> Make sure that your responses sum up to one hundred percent.</p>",,54461,5,html-multi-slider-response,,60
32,Condition 1,0.0-6.0,,20,60,5,15,20135,I'm gonna lie down for a while,I'm gonna lie down for a bit,I'm gonna lie down for some time,something else,0,"<p><img src=""../proexpec/t/t_b_30.jpg"" class=""scaled-img"" /></p><p>How likely do you think it is that someone would use these sentences? <br> Make sure that your responses sum up to one hundred percent.</p>",,74853,6,html-multi-slider-response,,30
32,Condition 1,0.0-7.0,,35,30,5,30,13757,I'm gonna lie down for a while,I'm gonna lie down for a bit,I'm gonna lie down for some time,something else,0,"<p><img src=""../proexpec/t/t_b_45.jpg"" class=""scaled-img"" /></p><p>How likely do you think it is that someone would use these sentences? <br> Make sure that your responses sum up to one hundred percent.</p>",,88861,7,html-multi-slider-response,,45
32,Condition 1,0.0-8.0,,30,40,5,25,13768,I'm gonna lie down for a while,I'm gonna lie down for a bit,I'm gonna lie down for some time,something else,0,"<p><img src=""../proexpec/t/t_b_60.jpg"" class=""scaled-img"" /></p><p>How likely do you think it is that someone would use these sentences? <br> Make sure that your responses sum up to one hundred percent.</p>",,102885,8,html-multi-slider-response,,60
32,Condition 1,0.0-9.0,,16,12,30,42,36548,I'm gonna lie down for a while,I'm gonna lie down for a bit,I'm gonna lie down for some time,something else,0,"<p><img src=""../proexpec/t/t_b_120.jpg"" class=""scaled-img"" /></p><p>How likely do you think it is that someone would use these sentences? <br> Make sure that your responses sum up to one hundred percent.</p>",,139685,9,html-multi-slider-response,,120
32,Condition 1,0.0-10.0,,0,50,0,50,29958,I'm gonna lie down for a while,I'm gonna lie down for a bit,I'm gonna lie down for some time,something else,0,"<p><img src=""../proexpec/t/t_b_5.jpg"" class=""scaled-img"" /></p><p>How likely do you think it is that someone would use these sentences? <br> Make sure that your responses sum up to one hundred percent.</p>",,169910,10,html-multi-slider-response,,5
32,Condition 1,0.0-11.0,,10,40,0,50,12079,I'm gonna lie down for a while,I'm gonna lie down for a bit,I'm gonna lie down for some time,something else,0,"<p><img src=""../proexpec/t/t_b_10.jpg"" class=""scaled-img"" /></p><p>How likely do you think it is that someone would use these sentences? <br> Make sure that your responses sum up to one hundred percent.</p>",,182245,11,html-multi-slider-response,,10
32,Condition 1,0.0-12.0,,20,30,5,45,10580,I'm gonna lie down for a while,I'm gonna lie down for a bit,I'm gonna lie down for some time,something else,0,"<p><img src=""../proexpec/t/t_b_15.jpg"" class=""scaled-img"" /></p><p>How likely do you think it is that someone would use these sentences? <br> Make sure that your responses sum up to one hundred percent.</p>",,193077,12,html-multi-slider-response,,15
32,Condition 1,0.0-13.0,,40,20,10,30,45247,I'm gonna lie down for a while,I'm gonna lie down for a bit,I'm gonna lie down for some time,something else,0,"<p><img src=""../proexpec/t/t_b_90.jpg"" class=""scaled-img"" /></p><p>How likely do you think it is that someone would use these sentences? <br> Make sure that your responses sum up to one hundred percent.</p>",,238582,13,html-multi-slider-response,,90
32,Condition 1,0.0-14.0,,35,10,25,30,32738,I'm gonna lie down for a while,I'm gonna lie down for a bit,I'm gonna lie down for some time,something else,0,"<p><img src=""../proexpec/t/t_b_75.jpg"" class=""scaled-img"" /></p><p>How likely do you think it is that someone would use these sentences? <br> Make sure that your responses sum up to one hundred percent.</p>",,271574,14,html-multi-slider-response,,75
32,Condition 1,0.0-15.0,,20,35,0,45,11353,I'm gonna lie down for a while,I'm gonna lie down for a bit,I'm gonna lie down for some time,something else,0,"<p><img src=""../proexpec/t/t_b_10.jpg"" class=""scaled-img"" /></p><p>How likely do you think it is that someone would use these sentences? <br> Make sure that your responses sum up to one hundred percent.</p>",,283190,15,html-multi-slider-response,,10
32,Condition 1,0.0-16.0,,0,50,0,50,14653,I'm gonna lie down for a while,I'm gonna lie down for a bit,I'm gonna lie down for some time,something else,0,"<p><img src=""../proexpec/t/t_b_5.jpg"" class=""scaled-img"" /></p><p>How likely do you think it is that someone would use these sentences? <br> Make sure that your responses sum up to one hundred percent.</p>",,298094,16,html-multi-slider-response,,5
32,Condition 1,0.0-17.0,,25,25,10,40,41976,I'm gonna lie down for a while,I'm gonna lie down for a bit,I'm gonna lie down for some time,something else,0,"<p><img src=""../proexpec/t/t_b_75.jpg"" class=""scaled-img"" /></p><p>How likely do you think it is that someone would use these sentences? <br> Make sure that your responses sum up to one hundred percent.</p>",,340333,17,html-multi-slider-response,,75
32,Condition 1,0.0-18.0,,20,40,0,40,14676,I'm gonna lie down for a while,I'm gonna lie down for a bit,I'm gonna lie down for some time,something else,0,"<p><img src=""../proexpec/t/t_b_15.jpg"" class=""scaled-img"" /></p><p>How likely do you think it is that someone would use these sentences? <br> Make sure that your responses sum up to one hundred percent.</p>",,355261,18,html-multi-slider-response,,15
32,Condition 1,0.0-19.0,,35,16,19,30,16605,I'm gonna lie down for a while,I'm gonna lie down for a bit,I'm gonna lie down for some time,something else,0,"<p><img src=""../proexpec/t/t_b_120.jpg"" class=""scaled-img"" /></p><p>How likely do you think it is that someone would use these sentences? <br> Make sure that your responses sum up to one hundred percent.</p>",,372118,19,html-multi-slider-response,,120
32,Condition 1,0.0-20.0,,30,20,5,45,15411,I'm gonna lie down for a while,I'm gonna lie down for a bit,I'm gonna lie down for some time,something else,0,"<p><img src=""../proexpec/t/t_b_45.jpg"" class=""scaled-img"" /></p><p>How likely do you think it is that someone would use these sentences? <br> Make sure that your responses sum up to one hundred percent.</p>",,387782,20,html-multi-slider-response,,45
32,Condition 1,0.0-21.0,,30,16,29,25,13443,I'm gonna lie down for a while,I'm gonna lie down for a bit,I'm gonna lie down for some time,something else,0,"<p><img src=""../proexpec/t/t_b_90.jpg"" class=""scaled-img"" /></p><p>How likely do you think it is that someone would use these sentences? <br> Make sure that your responses sum up to one hundred percent.</p>",,401477,21,html-multi-slider-response,,90
32,Condition 1,0.0-22.0,,20,40,1,39,11805,I'm gonna lie down for a while,I'm gonna lie down for a bit,I'm gonna lie down for some time,something else,0,"<p><img src=""../proexpec/t/t_b_30.jpg"" class=""scaled-img"" /></p><p>How likely do you think it is that someone would use these sentences? <br> Make sure that your responses sum up to one hundred percent.</p>",,413534,22,html-multi-slider-response,,30
11,Condition 1,0.0-5.0,,55,45,0,0,26338,I'm gonna lie down for a while,I'm gonna lie down for a bit,I'm gonna lie down for some time,something else,0,"<p><img src=""../proexpec/t/t_b_15.jpg"" class=""scaled-img"" /></p><p>How likely do you think it is that someone would use these sentences? <br> Make sure that your responses sum up to one hundred percent.</p>",,102897,5,html-multi-slider-response,,15
11,Condition 1,0.0-6.0,,43,57,0,0,22323,I'm gonna lie down for a while,I'm gonna lie down for a bit,I'm gonna lie down for some time,something else,0,"<p><img src=""../proexpec/t/t_b_60.jpg"" class=""scaled-img"" /></p><p>How likely do you think it is that someone would use these sentences? <br> Make sure that your responses sum up to one hundred percent.</p>",,125485,6,html-multi-slider-response,,60
11,Condition 1,0.0-7.0,,50,50,0,0,19616,I'm gonna lie down for a while,I'm gonna lie down for a bit,I'm gonna lie down for some time,something else,0,"<p><img src=""../proexpec/t/t_b_90.jpg"" class=""scaled-img"" /></p><p>How likely do you think it is that someone would use these sentences? <br> Make sure that your responses sum up to one hundred percent.</p>",,145365,7,html-multi-slider-response,,90
11,Condition 1,0.0-8.0,,50,50,0,0,16292,I'm gonna lie down for a while,I'm gonna lie down for a bit,I'm gonna lie down for some time,something else,0,"<p><img src=""../proexpec/t/t_b_120.jpg"" class=""scaled-img"" /></p><p>How likely do you think it is that someone would use these sentences? <br> Make sure that your responses sum up to one hundred percent.</p>",,161925,8,html-multi-slider-response,,120
11,Condition 1,0.0-9.0,,50,50,0,0,16588,I'm gonna lie down for a while,I'm gonna lie down for a bit,I'm gonna lie down for some time,something else,0,"<p><img src=""../proexpec/t/t_b_10.jpg"" class=""scaled-img"" /></p><p>How likely do you think it is that someone would use these sentences? <br> Make sure that your responses sum up to one hundred percent.</p>",,178766,9,html-multi-slider-response,,10
11,Condition 1,0.0-10.0,,48,52,0,0,14101,I'm gonna lie down for a while,I'm gonna lie down for a bit,I'm gonna lie down for some time,something else,0,"<p><img src=""../proexpec/t/t_b_75.jpg"" class=""scaled-img"" /></p><p>How likely do you think it is that someone would use these sentences? <br> Make sure that your responses sum up to one hundred percent.</p>",,193132,10,html-multi-slider-response,,75
11,Condition 1,0.0-11.0,,48,52,0,0,11987,I'm gonna lie down for a while,I'm gonna lie down for a bit,I'm gonna lie down for some time,something else,0,"<p><img src=""../proexpec/t/t_b_90.jpg"" class=""scaled-img"" /></p><p>How likely do you think it is that someone would use these sentences? <br> Make sure that your responses sum up to one hundred percent.</p>",,205383,11,html-multi-slider-response,,90
11,Condition 1,0.0-12.0,,37,48,0,15,15539,I'm gonna lie down for a while,I'm gonna lie down for a bit,I'm gonna lie down for some time,something else,0,"<p><img src=""../proexpec/t/t_b_30.jpg"" class=""scaled-img"" /></p><p>How likely do you think it is that someone would use these sentences? <br> Make sure that your responses sum up to one hundred percent.</p>",,221189,12,html-multi-slider-response,,30
11,Condition 1,0.0-13.0,,48,52,0,0,7824,I'm gonna lie down for a while,I'm gonna lie down for a bit,I'm gonna lie down for some time,something else,0,"<p><img src=""../proexpec/t/t_b_120.jpg"" class=""scaled-img"" /></p><p>How likely do you think it is that someone would use these sentences? <br> Make sure that your responses sum up to one hundred percent.</p>",,229278,13,html-multi-slider-response,,120
11,Condition 1,0.0-14.0,,49,51,0,0,4772,I'm gonna lie down for a while,I'm gonna lie down for a bit,I'm gonna lie down for some time,something else,0,"<p><img src=""../proexpec/t/t_b_15.jpg"" class=""scaled-img"" /></p><p>How likely do you think it is that someone would use these sentences? <br> Make sure that your responses sum up to one hundred percent.</p>",,234307,14,html-multi-slider-response,,15
11,Condition 1,0.0-15.0,,49,51,0,0,7439,I'm gonna lie down for a while,I'm gonna lie down for a bit,I'm gonna lie down for some time,something else,0,"<p><img src=""../proexpec/t/t_b_75.jpg"" class=""scaled-img"" /></p><p>How likely do you think it is that someone would use these sentences? <br> Make sure that your responses sum up to one hundred percent.</p>",,241997,15,html-multi-slider-response,,75
11,Condition 1,0.0-16.0,,44,56,0,0,5710,I'm gonna lie down for a while,I'm gonna lie down for a bit,I'm gonna lie down for some time,something else,0,"<p><img src=""../proexpec/t/t_b_10.jpg"" class=""scaled-img"" /></p><p>How likely do you think it is that someone would use these sentences? <br> Make sure that your responses sum up to one hundred percent.</p>",,247963,16,html-multi-slider-response,,10
11,Condition 1,0.0-17.0,,48,52,0,0,5700,I'm gonna lie down for a while,I'm gonna lie down for a bit,I'm gonna lie down for some time,something else,0,"<p><img src=""../proexpec/t/t_b_45.jpg"" class=""scaled-img"" /></p><p>How likely do you think it is that someone would use these sentences? <br> Make sure that your responses sum up to one hundred percent.</p>",,253926,17,html-multi-slider-response,,45
11,Condition 1,0.0-18.0,,48,52,0,0,5299,I'm gonna lie down for a while,I'm gonna lie down for a bit,I'm gonna lie down for some time,something else,0,"<p><img src=""../proexpec/t/t_b_5.jpg"" class=""scaled-img"" /></p><p>How likely do you think it is that someone would use these sentences? <br> Make sure that your responses sum up to one hundred percent.</p>",,259483,18,html-multi-slider-response,,5
11,Condition 1,0.0-19.0,,45,55,0,0,5853,I'm gonna lie down for a while,I'm gonna lie down for a bit,I'm gonna lie down for some time,something else,0,"<p><img src=""../proexpec/t/t_b_60.jpg"" class=""scaled-img"" /></p><p>How likely do you think it is that someone would use these sentences? <br> Make sure that your responses sum up to one hundred percent.</p>",,265604,19,html-multi-slider-response,,60
11,Condition 1,0.0-20.0,,42,58,0,0,4665,I'm gonna lie down for a while,I'm gonna lie down for a bit,I'm gonna lie down for some time,something else,0,"<p><img src=""../proexpec/t/t_b_45.jpg"" class=""scaled-img"" /></p><p>How likely do you think it is that someone would use these sentences? <br> Make sure that your responses sum up to one hundred percent.</p>",,270531,20,html-multi-slider-response,,45
11,Condition 1,0.0-21.0,,48,52,0,0,5080,I'm gonna lie down for a while,I'm gonna lie down for a bit,I'm gonna lie down for some time,something else,0,"<p><img src=""../proexpec/t/t_b_5.jpg"" class=""scaled-img"" /></p><p>How likely do you think it is that someone would use these sentences? <br> Make sure that your responses sum up to one hundred percent.</p>",,275874,21,html-multi-slider-response,,5
11,Condition 1,0.0-22.0,,45,55,0,0,7197,I'm gonna lie down for a while,I'm gonna lie down for a bit,I'm gonna lie down for some time,something else,0,"<p><img src=""../proexpec/t/t_b_30.jpg"" class=""scaled-img"" /></p><p>How likely do you think it is that someone would use these sentences? <br> Make sure that your responses sum up to one hundred percent.</p>",,283333,22,html-multi-slider-response,,30
49,Condition 1,0.0-5.0,,60,20,20,0,20934,I'm gonna lie down for a while,I'm gonna lie down for a bit,I'm gonna lie down for some time,something else,0,"<p><img src=""../proexpec/t/t_b_60.jpg"" class=""scaled-img"" /></p><p>How likely do you think it is that someone would use these sentences? <br> Make sure that your responses sum up to one hundred percent.</p>",,38021,5,html-multi-slider-response,,60
49,Condition 1,0.0-6.0,,50,30,20,0,19481,I'm gonna lie down for a while,I'm gonna lie down for a bit,I'm gonna lie down for some time,something else,0,"<p><img src=""../proexpec/t/t_b_45.jpg"" class=""scaled-img"" /></p><p>How likely do you think it is that someone would use these sentences? <br> Make sure that your responses sum up to one hundred percent.</p>",,57758,6,html-multi-slider-response,,45
49,Condition 1,0.0-7.0,,30,15,55,0,14316,I'm gonna lie down for a while,I'm gonna lie down for a bit,I'm gonna lie down for some time,something else,0,"<p><img src=""../proexpec/t/t_b_75.jpg"" class=""scaled-img"" /></p><p>How likely do you think it is that someone would use these sentences? <br> Make sure that your responses sum up to one hundred percent.</p>",,72340,7,html-multi-slider-response,,75
49,Condition 1,0.0-8.0,,20,60,20,0,11523,I'm gonna lie down for a while,I'm gonna lie down for a bit,I'm gonna lie down for some time,something else,0,"<p><img src=""../proexpec/t/t_b_30.jpg"" class=""scaled-img"" /></p><p>How likely do you think it is that someone would use these sentences? <br> Make sure that your responses sum up to one hundred percent.</p>",,84114,8,html-multi-slider-response,,30
49,Condition 1,0.0-9.0,,0,60,0,40,8629,I'm gonna lie down for a while,I'm gonna lie down for a bit,I'm gonna lie down for some time,something else,0,"<p><img src=""../proexpec/t/t_b_10.jpg"" class=""scaled-img"" /></p><p>How likely do you think it is that someone would use these sentences? <br> Make sure that your responses sum up to one hundred percent.</p>",,93007,9,html-multi-slider-response,,10
49,Condition 1,0.0-10.0,,60,35,0,5,11622,I'm gonna lie down for a while,I'm gonna lie down for a bit,I'm gonna lie down for some time,something else,0,"<p><img src=""../proexpec/t/t_b_45.jpg"" class=""scaled-img"" /></p><p>How likely do you think it is that someone would use these sentences? <br> Make sure that your responses sum up to one hundred percent.</p>",,104890,10,html-multi-slider-response,,45
49,Condition 1,0.0-11.0,,30,20,50,0,16337,I'm gonna lie down for a while,I'm gonna lie down for a bit,I'm gonna lie down for some time,something else,0,"<p><img src=""../proexpec/t/t_b_90.jpg"" class=""scaled-img"" /></p><p>How likely do you think it is that someone would use these sentences? <br> Make sure that your responses sum up to one hundred percent.</p>",,121491,11,html-multi-slider-response,,90
49,Condition 1,0.0-12.0,,50,20,30,0,20021,I'm gonna lie down for a while,I'm gonna lie down for a bit,I'm gonna lie down for some time,something else,0,"<p><img src=""../proexpec/t/t_b_60.jpg"" class=""scaled-img"" /></p><p>How likely do you think it is that someone would use these sentences? <br> Make sure that your responses sum up to one hundred percent.</p>",,141767,12,html-multi-slider-response,,60
49,Condition 1,0.0-13.0,,0,70,0,30,7127,I'm gonna lie down for a while,I'm gonna lie down for a bit,I'm gonna lie down for some time,something else,0,"<p><img src=""../proexpec/t/t_b_10.jpg"" class=""scaled-img"" /></p><p>How likely do you think it is that someone would use these sentences? <br> Make sure that your responses sum up to one hundred percent.</p>",,149152,13,html-multi-slider-response,,10
49,Condition 1,0.0-14.0,,30,15,50,5,18370,I'm gonna lie down for a while,I'm gonna lie down for a bit,I'm gonna lie down for some time,something else,0,"<p><img src=""../proexpec/t/t_b_90.jpg"" class=""scaled-img"" /></p><p>How likely do you think it is that someone would use these sentences? <br> Make sure that your responses sum up to one hundred percent.</p>",,167778,14,html-multi-slider-response,,90
49,Condition 1,0.0-15.0,,10,50,10,30,28339,I'm gonna lie down for a while,I'm gonna lie down for a bit,I'm gonna lie down for some time,something else,0,"<p><img src=""../proexpec/t/t_b_15.jpg"" class=""scaled-img"" /></p><p>How likely do you think it is that someone would use these sentences? <br> Make sure that your responses sum up to one hundred percent.</p>",,196383,15,html-multi-slider-response,,15
49,Condition 1,0.0-16.0,,0,60,0,40,10257,I'm gonna lie down for a while,I'm gonna lie down for a bit,I'm gonna lie down for some time,something else,0,"<p><img src=""../proexpec/t/t_b_5.jpg"" class=""scaled-img"" /></p><p>How likely do you think it is that someone would use these sentences? <br> Make sure that your responses sum up to one hundred percent.</p>",,206891,16,html-multi-slider-response,,5
49,Condition 1,0.0-17.0,,40,40,10,10,24685,I'm gonna lie down for a while,I'm gonna lie down for a bit,I'm gonna lie down for some time,something else,0,"<p><img src=""../proexpec/t/t_b_30.jpg"" class=""scaled-img"" /></p><p>How likely do you think it is that someone would use these sentences? <br> Make sure that your responses sum up to one hundred percent.</p>",,231845,17,html-multi-slider-response,,30
49,Condition 1,0.0-18.0,,40,0,60,0,9580,I'm gonna lie down for a while,I'm gonna lie down for a bit,I'm gonna lie down for some time,something else,0,"<p><img src=""../proexpec/t/t_b_120.jpg"" class=""scaled-img"" /></p><p>How likely do you think it is that someone would use these sentences? <br> Make sure that your responses sum up to one hundred percent.</p>",,241678,18,html-multi-slider-response,,120
49,Condition 1,0.0-19.0,,0,60,0,40,7038,I'm gonna lie down for a while,I'm gonna lie down for a bit,I'm gonna lie down for some time,something else,0,"<p><img src=""../proexpec/t/t_b_15.jpg"" class=""scaled-img"" /></p><p>How likely do you think it is that someone would use these sentences? <br> Make sure that your responses sum up to one hundred percent.</p>",,248976,19,html-multi-slider-response,,15
49,Condition 1,0.0-20.0,,0,80,0,20,9715,I'm gonna lie down for a while,I'm gonna lie down for a bit,I'm gonna lie down for some time,something else,0,"<p><img src=""../proexpec/t/t_b_5.jpg"" class=""scaled-img"" /></p><p>How likely do you think it is that someone would use these sentences? <br> Make sure that your responses sum up to one hundred percent.</p>",,258944,20,html-multi-slider-response,,5
49,Condition 1,0.0-21.0,,40,0,60,0,6708,I'm gonna lie down for a while,I'm gonna lie down for a bit,I'm gonna lie down for some time,something else,0,"<p><img src=""../proexpec/t/t_b_120.jpg"" class=""scaled-img"" /></p><p>How likely do you think it is that someone would use these sentences? <br> Make sure that your responses sum up to one hundred percent.</p>",,265912,21,html-multi-slider-response,,120
49,Condition 1,0.0-22.0,,40,0,60,0,7478,I'm gonna lie down for a while,I'm gonna lie down for a bit,I'm gonna lie down for some time,something else,0,"<p><img src=""../proexpec/t/t_b_75.jpg"" class=""scaled-img"" /></p><p>How likely do you think it is that someone would use these sentences? <br> Make sure that your responses sum up to one hundred percent.</p>",,273655,22,html-multi-slider-response,,75
52,Condition 1,0.0-5.0,,16,15,13,56,65780,I'm gonna lie down for a while,I'm gonna lie down for a bit,I'm gonna lie down for some time,something else,0,"<p><img src=""../proexpec/t/t_b_60.jpg"" class=""scaled-img"" /></p><p>How likely do you think it is that someone would use these sentences? <br> Make sure that your responses sum up to one hundred percent.</p>",,118784,5,html-multi-slider-response,,60
52,Condition 1,0.0-6.0,,17,15,17,51,21838,I'm gonna lie down for a while,I'm gonna lie down for a bit,I'm gonna lie down for some time,something else,0,"<p><img src=""../proexpec/t/t_b_15.jpg"" class=""scaled-img"" /></p><p>How likely do you think it is that someone would use these sentences? <br> Make sure that your responses sum up to one hundred percent.</p>",,140878,6,html-multi-slider-response,,15
52,Condition 1,0.0-7.0,,13,14,13,60,23695,I'm gonna lie down for a while,I'm gonna lie down for a bit,I'm gonna lie down for some time,something else,0,"<p><img src=""../proexpec/t/t_b_30.jpg"" class=""scaled-img"" /></p><p>How likely do you think it is that someone would use these sentences? <br> Make sure that your responses sum up to one hundred percent.</p>",,164832,7,html-multi-slider-response,,30
52,Condition 1,0.0-8.0,,11,9,12,68,14744,I'm gonna lie down for a while,I'm gonna lie down for a bit,I'm gonna lie down for some time,something else,0,"<p><img src=""../proexpec/t/t_b_30.jpg"" class=""scaled-img"" /></p><p>How likely do you think it is that someone would use these sentences? <br> Make sure that your responses sum up to one hundred percent.</p>",,179829,8,html-multi-slider-response,,30
52,Condition 1,0.0-9.0,,13,13,13,61,21314,I'm gonna lie down for a while,I'm gonna lie down for a bit,I'm gonna lie down for some time,something else,0,"<p><img src=""../proexpec/t/t_b_75.jpg"" class=""scaled-img"" /></p><p>How likely do you think it is that someone would use these sentences? <br> Make sure that your responses sum up to one hundred percent.</p>",,201399,9,html-multi-slider-response,,75
52,Condition 1,0.0-10.0,,11,13,13,63,15390,I'm gonna lie down for a while,I'm gonna lie down for a bit,I'm gonna lie down for some time,something else,0,"<p><img src=""../proexpec/t/t_b_5.jpg"" class=""scaled-img"" /></p><p>How likely do you think it is that someone would use these sentences? <br> Make sure that your responses sum up to one hundred percent.</p>",,217058,10,html-multi-slider-response,,5
52,Condition 1,0.0-11.0,,12,13,11,64,19039,I'm gonna lie down for a while,I'm gonna lie down for a bit,I'm gonna lie down for some time,something else,0,"<p><img src=""../proexpec/t/t_b_10.jpg"" class=""scaled-img"" /></p><p>How likely do you think it is that someone would use these sentences? <br> Make sure that your responses sum up to one hundred percent.</p>",,236360,11,html-multi-slider-response,,10
52,Condition 1,0.0-12.0,,13,15,35,37,32067,I'm gonna lie down for a while,I'm gonna lie down for a bit,I'm gonna lie down for some time,something else,0,"<p><img src=""../proexpec/t/t_b_5.jpg"" class=""scaled-img"" /></p><p>How likely do you think it is that someone would use these sentences? <br> Make sure that your responses sum up to one hundred percent.</p>",,268684,12,html-multi-slider-response,,5
52,Condition 1,0.0-13.0,,27,19,24,30,39416,I'm gonna lie down for a while,I'm gonna lie down for a bit,I'm gonna lie down for some time,something else,0,"<p><img src=""../proexpec/t/t_b_90.jpg"" class=""scaled-img"" /></p><p>How likely do you think it is that someone would use these sentences? <br> Make sure that your responses sum up to one hundred percent.</p>",,308360,13,html-multi-slider-response,,90
52,Condition 1,0.0-14.0,,9,23,28,40,27317,I'm gonna lie down for a while,I'm gonna lie down for a bit,I'm gonna lie down for some time,something else,0,"<p><img src=""../proexpec/t/t_b_15.jpg"" class=""scaled-img"" /></p><p>How likely do you think it is that someone would use these sentences? <br> Make sure that your responses sum up to one hundred percent.</p>",,335940,14,html-multi-slider-response,,15
52,Condition 1,0.0-15.0,,16,25,24,35,128392,I'm gonna lie down for a while,I'm gonna lie down for a bit,I'm gonna lie down for some time,something else,0,"<p><img src=""../proexpec/t/t_b_45.jpg"" class=""scaled-img"" /></p><p>How likely do you think it is that someone would use these sentences? <br> Make sure that your responses sum up to one hundred percent.</p>",,464588,15,html-multi-slider-response,,45
52,Condition 1,0.0-16.0,,22,23,24,31,39942,I'm gonna lie down for a while,I'm gonna lie down for a bit,I'm gonna lie down for some time,something else,0,"<p><img src=""../proexpec/t/t_b_120.jpg"" class=""scaled-img"" /></p><p>How likely do you think it is that someone would use these sentences? <br> Make sure that your responses sum up to one hundred percent.</p>",,504788,16,html-multi-slider-response,,120
52,Condition 1,0.0-17.0,,20,20,21,39,33871,I'm gonna lie down for a while,I'm gonna lie down for a bit,I'm gonna lie down for some time,something else,0,"<p><img src=""../proexpec/t/t_b_60.jpg"" class=""scaled-img"" /></p><p>How likely do you think it is that someone would use these sentences? <br> Make sure that your responses sum up to one hundred percent.</p>",,538926,17,html-multi-slider-response,,60
52,Condition 1,0.0-18.0,,22,22,25,31,28374,I'm gonna lie down for a while,I'm gonna lie down for a bit,I'm gonna lie down for some time,something else,0,"<p><img src=""../proexpec/t/t_b_90.jpg"" class=""scaled-img"" /></p><p>How likely do you think it is that someone would use these sentences? <br> Make sure that your responses sum up to one hundred percent.</p>",,567558,18,html-multi-slider-response,,90
52,Condition 1,0.0-19.0,,17,18,17,48,27655,I'm gonna lie down for a while,I'm gonna lie down for a bit,I'm gonna lie down for some time,something else,0,"<p><img src=""../proexpec/t/t_b_75.jpg"" class=""scaled-img"" /></p><p>How likely do you think it is that someone would use these sentences? <br> Make sure that your responses sum up to one hundred percent.</p>",,595478,19,html-multi-slider-response,,75
52,Condition 1,0.0-20.0,,13,11,12,64,22043,I'm gonna lie down for a while,I'm gonna lie down for a bit,I'm gonna lie down for some time,something else,0,"<p><img src=""../proexpec/t/t_b_45.jpg"" class=""scaled-img"" /></p><p>How likely do you think it is that someone would use these sentences? <br> Make sure that your responses sum up to one hundred percent.</p>",,617776,20,html-multi-slider-response,,45
52,Condition 1,0.0-21.0,,15,15,20,50,27246,I'm gonna lie down for a while,I'm gonna lie down for a bit,I'm gonna lie down for some time,something else,0,"<p><img src=""../proexpec/t/t_b_10.jpg"" class=""scaled-img"" /></p><p>How likely do you think it is that someone would use these sentences? <br> Make sure that your responses sum up to one hundred percent.</p>",,645276,21,html-multi-slider-response,,10
52,Condition 1,0.0-22.0,,15,12,11,62,19537,I'm gonna lie down for a while,I'm gonna lie down for a bit,I'm gonna lie down for some time,something else,0,"<p><img src=""../proexpec/t/t_b_120.jpg"" class=""scaled-img"" /></p><p>How likely do you think it is that someone would use these sentences? <br> Make sure that your responses sum up to one hundred percent.</p>",,665073,22,html-multi-slider-response,,120
38,Condition 1,0.0-5.0,,70,0,30,0,9143,I'm gonna lie down for a while,I'm gonna lie down for a bit,I'm gonna lie down for some time,something else,0,"<p><img src=""../proexpec/t/t_b_120.jpg"" class=""scaled-img"" /></p><p>How likely do you think it is that someone would use these sentences? <br> Make sure that your responses sum up to one hundred percent.</p>",,20207,5,html-multi-slider-response,,120
38,Condition 1,0.0-6.0,,0,74,0,26,5409,I'm gonna lie down for a while,I'm gonna lie down for a bit,I'm gonna lie down for some time,something else,0,"<p><img src=""../proexpec/t/t_b_30.jpg"" class=""scaled-img"" /></p><p>How likely do you think it is that someone would use these sentences? <br> Make sure that your responses sum up to one hundred percent.</p>",,25873,6,html-multi-slider-response,,30
38,Condition 1,0.0-7.0,,0,62,0,38,5560,I'm gonna lie down for a while,I'm gonna lie down for a bit,I'm gonna lie down for some time,something else,0,"<p><img src=""../proexpec/t/t_b_30.jpg"" class=""scaled-img"" /></p><p>How likely do you think it is that someone would use these sentences? <br> Make sure that your responses sum up to one hundred percent.</p>",,31699,7,html-multi-slider-response,,30
38,Condition 1,0.0-8.0,,0,0,0,100,5012,I'm gonna lie down for a while,I'm gonna lie down for a bit,I'm gonna lie down for some time,something else,0,"<p><img src=""../proexpec/t/t_b_5.jpg"" class=""scaled-img"" /></p><p>How likely do you think it is that someone would use these sentences? <br> Make sure that your responses sum up to one hundred percent.</p>",,36967,8,html-multi-slider-response,,5
38,Condition 1,0.0-9.0,,73,27,0,0,16391,I'm gonna lie down for a while,I'm gonna lie down for a bit,I'm gonna lie down for some time,something else,0,"<p><img src=""../proexpec/t/t_b_120.jpg"" class=""scaled-img"" /></p><p>How likely do you think it is that someone would use these sentences? <br> Make sure that your responses sum up to one hundred percent.</p>",,53611,9,html-multi-slider-response,,120
38,Condition 1,0.0-10.0,,33,30,37,0,4711,I'm gonna lie down for a while,I'm gonna lie down for a bit,I'm gonna lie down for some time,something else,0,"<p><img src=""../proexpec/t/t_b_45.jpg"" class=""scaled-img"" /></p><p>How likely do you think it is that someone would use these sentences? <br> Make sure that your responses sum up to one hundred percent.</p>",,58575,10,html-multi-slider-response,,45
38,Condition 1,0.0-11.0,,0,0,0,100,3858,I'm gonna lie down for a while,I'm gonna lie down for a bit,I'm gonna lie down for some time,something else,0,"<p><img src=""../proexpec/t/t_b_5.jpg"" class=""scaled-img"" /></p><p>How likely do you think it is that someone would use these sentences? <br> Make sure that your responses sum up to one hundred percent.</p>",,62687,11,html-multi-slider-response,,5
38,Condition 1,0.0-12.0,,0,56,44,0,3355,I'm gonna lie down for a while,I'm gonna lie down for a bit,I'm gonna lie down for some time,something else,0,"<p><img src=""../proexpec/t/t_b_15.jpg"" class=""scaled-img"" /></p><p>How likely do you think it is that someone would use these sentences? <br> Make sure that your responses sum up to one hundred percent.</p>",,66298,12,html-multi-slider-response,,15
38,Condition 1,0.0-13.0,,47,30,23,0,4190,I'm gonna lie down for a while,I'm gonna lie down for a bit,I'm gonna lie down for some time,something else,0,"<p><img src=""../proexpec/t/t_b_75.jpg"" class=""scaled-img"" /></p><p>How likely do you think it is that someone would use these sentences? <br> Make sure that your responses sum up to one hundred percent.</p>",,70752,13,html-multi-slider-response,,75
38,Condition 1,0.0-14.0,,0,0,0,100,2801,I'm gonna lie down for a while,I'm gonna lie down for a bit,I'm gonna lie down for some time,something else,0,"<p><img src=""../proexpec/t/t_b_10.jpg"" class=""scaled-img"" /></p><p>How likely do you think it is that someone would use these sentences? <br> Make sure that your responses sum up to one hundred percent.</p>",,73810,14,html-multi-slider-response,,10
38,Condition 1,0.0-15.0,,40,34,26,0,4372,I'm gonna lie down for a while,I'm gonna lie down for a bit,I'm gonna lie down for some time,something else,0,"<p><img src=""../proexpec/t/t_b_75.jpg"" class=""scaled-img"" /></p><p>How likely do you think it is that someone would use these sentences? <br> Make sure that your responses sum up to one hundred percent.</p>",,78449,15,html-multi-slider-response,,75
38,Condition 1,0.0-16.0,,0,48,47,5,3909,I'm gonna lie down for a while,I'm gonna lie down for a bit,I'm gonna lie down for some time,something else,0,"<p><img src=""../proexpec/t/t_b_15.jpg"" class=""scaled-img"" /></p><p>How likely do you think it is that someone would use these sentences? <br> Make sure that your responses sum up to one hundred percent.</p>",,82619,16,html-multi-slider-response,,15
38,Condition 1,0.0-17.0,,71,29,0,0,3218,I'm gonna lie down for a while,I'm gonna lie down for a bit,I'm gonna lie down for some time,something else,0,"<p><img src=""../proexpec/t/t_b_90.jpg"" class=""scaled-img"" /></p><p>How likely do you think it is that someone would use these sentences? <br> Make sure that your responses sum up to one hundred percent.</p>",,86091,17,html-multi-slider-response,,90
38,Condition 1,0.0-18.0,,0,0,24,76,4047,I'm gonna lie down for a while,I'm gonna lie down for a bit,I'm gonna lie down for some time,something else,0,"<p><img src=""../proexpec/t/t_b_10.jpg"" class=""scaled-img"" /></p><p>How likely do you think it is that someone would use these sentences? <br> Make sure that your responses sum up to one hundred percent.</p>",,90407,18,html-multi-slider-response,,10
38,Condition 1,0.0-19.0,,52,0,48,0,3748,I'm gonna lie down for a while,I'm gonna lie down for a bit,I'm gonna lie down for some time,something else,0,"<p><img src=""../proexpec/t/t_b_90.jpg"" class=""scaled-img"" /></p><p>How likely do you think it is that someone would use these sentences? <br> Make sure that your responses sum up to one hundred percent.</p>",,94416,19,html-multi-slider-response,,90
38,Condition 1,0.0-20.0,,0,52,48,0,6179,I'm gonna lie down for a while,I'm gonna lie down for a bit,I'm gonna lie down for some time,something else,0,"<p><img src=""../proexpec/t/t_b_60.jpg"" class=""scaled-img"" /></p><p>How likely do you think it is that someone would use these sentences? <br> Make sure that your responses sum up to one hundred percent.</p>",,100856,20,html-multi-slider-response,,60
38,Condition 1,0.0-21.0,,0,60,40,0,28411,I'm gonna lie down for a while,I'm gonna lie down for a bit,I'm gonna lie down for some time,something else,0,"<p><img src=""../proexpec/t/t_b_60.jpg"" class=""scaled-img"" /></p><p>How likely do you think it is that someone would use these sentences? <br> Make sure that your responses sum up to one hundred percent.</p>",,129520,21,html-multi-slider-response,,60
38,Condition 1,0.0-22.0,,0,48,52,0,2726,I'm gonna lie down for a while,I'm gonna lie down for a bit,I'm gonna lie down for some time,something else,0,"<p><img src=""../proexpec/t/t_b_45.jpg"" class=""scaled-img"" /></p><p>How likely do you think it is that someone would use these sentences? <br> Make sure that your responses sum up to one hundred percent.</p>",,132508,22,html-multi-slider-response,,45
48,Condition 1,0.0-5.0,,80,5,0,15,53905,I'm gonna lie down for a while,I'm gonna lie down for a bit,I'm gonna lie down for some time,something else,0,"<p><img src=""../proexpec/t/t_b_5.jpg"" class=""scaled-img"" /></p><p>How likely do you think it is that someone would use these sentences? <br> Make sure that your responses sum up to one hundred percent.</p>",,128718,5,html-multi-slider-response,,5
48,Condition 1,0.0-6.0,,80,5,0,15,28726,I'm gonna lie down for a while,I'm gonna lie down for a bit,I'm gonna lie down for some time,something else,0,"<p><img src=""../proexpec/t/t_b_120.jpg"" class=""scaled-img"" /></p><p>How likely do you think it is that someone would use these sentences? <br> Make sure that your responses sum up to one hundred percent.</p>",,157697,6,html-multi-slider-response,,120
48,Condition 1,0.0-7.0,,80,5,0,15,25151,I'm gonna lie down for a while,I'm gonna lie down for a bit,I'm gonna lie down for some time,something else,0,"<p><img src=""../proexpec/t/t_b_15.jpg"" class=""scaled-img"" /></p><p>How likely do you think it is that someone would use these sentences? <br> Make sure that your responses sum up to one hundred percent.</p>",,183102,7,html-multi-slider-response,,15
48,Condition 1,0.0-8.0,,80,4,1,15,32124,I'm gonna lie down for a while,I'm gonna lie down for a bit,I'm gonna lie down for some time,something else,0,"<p><img src=""../proexpec/t/t_b_45.jpg"" class=""scaled-img"" /></p><p>How likely do you think it is that someone would use these sentences? <br> Make sure that your responses sum up to one hundred percent.</p>",,215480,8,html-multi-slider-response,,45
48,Condition 1,0.0-9.0,,80,4,1,15,32061,I'm gonna lie down for a while,I'm gonna lie down for a bit,I'm gonna lie down for some time,something else,0,"<p><img src=""../proexpec/t/t_b_90.jpg"" class=""scaled-img"" /></p><p>How likely do you think it is that someone would use these sentences? <br> Make sure that your responses sum up to one hundred percent.</p>",,247792,9,html-multi-slider-response,,90
48,Condition 1,0.0-10.0,,80,5,0,15,27572,I'm gonna lie down for a while,I'm gonna lie down for a bit,I'm gonna lie down for some time,something else,0,"<p><img src=""../proexpec/t/t_b_60.jpg"" class=""scaled-img"" /></p><p>How likely do you think it is that someone would use these sentences? <br> Make sure that your responses sum up to one hundred percent.</p>",,275616,10,html-multi-slider-response,,60
48,Condition 1,0.0-11.0,,85,0,0,15,15626,I'm gonna lie down for a while,I'm gonna lie down for a bit,I'm gonna lie down for some time,something else,0,"<p><img src=""../proexpec/t/t_b_45.jpg"" class=""scaled-img"" /></p><p>How likely do you think it is that someone would use these sentences? <br> Make sure that your responses sum up to one hundred percent.</p>",,291494,11,html-multi-slider-response,,45
48,Condition 1,0.0-12.0,,70,20,0,10,16471,I'm gonna lie down for a while,I'm gonna lie down for a bit,I'm gonna lie down for some time,something else,0,"<p><img src=""../proexpec/t/t_b_30.jpg"" class=""scaled-img"" /></p><p>How likely do you think it is that someone would use these sentences? <br> Make sure that your responses sum up to one hundred percent.</p>",,308218,12,html-multi-slider-response,,30
48,Condition 1,0.0-13.0,,90,5,0,5,18054,I'm gonna lie down for a while,I'm gonna lie down for a bit,I'm gonna lie down for some time,something else,0,"<p><img src=""../proexpec/t/t_b_90.jpg"" class=""scaled-img"" /></p><p>How likely do you think it is that someone would use these sentences? <br> Make sure that your responses sum up to one hundred percent.</p>",,326524,13,html-multi-slider-response,,90
48,Condition 1,0.0-14.0,,90,5,0,5,14273,I'm gonna lie down for a while,I'm gonna lie down for a bit,I'm gonna lie down for some time,something else,0,"<p><img src=""../proexpec/t/t_b_75.jpg"" class=""scaled-img"" /></p><p>How likely do you think it is that someone would use these sentences? <br> Make sure that your responses sum up to one hundred percent.</p>",,341049,14,html-multi-slider-response,,75
48,Condition 1,0.0-15.0,,95,0,0,5,12194,I'm gonna lie down for a while,I'm gonna lie down for a bit,I'm gonna lie down for some time,something else,0,"<p><img src=""../proexpec/t/t_b_120.jpg"" class=""scaled-img"" /></p><p>How likely do you think it is that someone would use these sentences? <br> Make sure that your responses sum up to one hundred percent.</p>",,353496,15,html-multi-slider-response,,120
48,Condition 1,0.0-16.0,,85,10,0,5,17872,I'm gonna lie down for a while,I'm gonna lie down for a bit,I'm gonna lie down for some time,something else,0,"<p><img src=""../proexpec/t/t_b_60.jpg"" class=""scaled-img"" /></p><p>How likely do you think it is that someone would use these sentences? <br> Make sure that your responses sum up to one hundred percent.</p>",,371620,16,html-multi-slider-response,,60
48,Condition 1,0.0-17.0,,10,80,0,10,17427,I'm gonna lie down for a while,I'm gonna lie down for a bit,I'm gonna lie down for some time,something else,0,"<p><img src=""../proexpec/t/t_b_15.jpg"" class=""scaled-img"" /></p><p>How likely do you think it is that someone would use these sentences? <br> Make sure that your responses sum up to one hundred percent.</p>",,389299,17,html-multi-slider-response,,15
48,Condition 1,0.0-18.0,,85,5,0,10,25071,I'm gonna lie down for a while,I'm gonna lie down for a bit,I'm gonna lie down for some time,something else,0,"<p><img src=""../proexpec/t/t_b_5.jpg"" class=""scaled-img"" /></p><p>How likely do you think it is that someone would use these sentences? <br> Make sure that your responses sum up to one hundred percent.</p>",,414622,18,html-multi-slider-response,,5
48,Condition 1,0.0-19.0,,50,45,0,5,13377,I'm gonna lie down for a while,I'm gonna lie down for a bit,I'm gonna lie down for some time,something else,0,"<p><img src=""../proexpec/t/t_b_30.jpg"" class=""scaled-img"" /></p><p>How likely do you think it is that someone would use these sentences? <br> Make sure that your responses sum up to one hundred percent.</p>",,428251,19,html-multi-slider-response,,30
48,Condition 1,0.0-20.0,,10,85,0,5,16734,I'm gonna lie down for a while,I'm gonna lie down for a bit,I'm gonna lie down for some time,something else,0,"<p><img src=""../proexpec/t/t_b_10.jpg"" class=""scaled-img"" /></p><p>How likely do you think it is that someone would use these sentences? <br> Make sure that your responses sum up to one hundred percent.</p>",,445238,20,html-multi-slider-response,,10
48,Condition 1,0.0-21.0,,85,0,10,5,18132,I'm gonna lie down for a while,I'm gonna lie down for a bit,I'm gonna lie down for some time,something else,0,"<p><img src=""../proexpec/t/t_b_75.jpg"" class=""scaled-img"" /></p><p>How likely do you think it is that someone would use these sentences? <br> Make sure that your responses sum up to one hundred percent.</p>",,463621,21,html-multi-slider-response,,75
48,Condition 1,0.0-22.0,,5,90,0,5,19359,I'm gonna lie down for a while,I'm gonna lie down for a bit,I'm gonna lie down for some time,something else,0,"<p><img src=""../proexpec/t/t_b_10.jpg"" class=""scaled-img"" /></p><p>How likely do you think it is that someone would use these sentences? <br> Make sure that your responses sum up to one hundred percent.</p>",,483231,22,html-multi-slider-response,,10
43,Condition 1,0.0-5.0,,30,50,15,5,27431,I'm gonna lie down for a while,I'm gonna lie down for a bit,I'm gonna lie down for some time,something else,0,"<p><img src=""../proexpec/t/t_b_60.jpg"" class=""scaled-img"" /></p><p>How likely do you think it is that someone would use these sentences? <br> Make sure that your responses sum up to one hundred percent.</p>",,62815,5,html-multi-slider-response,,60
43,Condition 1,0.0-6.0,,40,30,20,10,25433,I'm gonna lie down for a while,I'm gonna lie down for a bit,I'm gonna lie down for some time,something else,0,"<p><img src=""../proexpec/t/t_b_90.jpg"" class=""scaled-img"" /></p><p>How likely do you think it is that someone would use these sentences? <br> Make sure that your responses sum up to one hundred percent.</p>",,88502,6,html-multi-slider-response,,90
43,Condition 1,0.0-7.0,,30,30,30,10,23408,I'm gonna lie down for a while,I'm gonna lie down for a bit,I'm gonna lie down for some time,something else,0,"<p><img src=""../proexpec/t/t_b_30.jpg"" class=""scaled-img"" /></p><p>How likely do you think it is that someone would use these sentences? <br> Make sure that your responses sum up to one hundred percent.</p>",,112164,7,html-multi-slider-response,,30
43,Condition 1,0.0-8.0,,30,50,15,5,15775,I'm gonna lie down for a while,I'm gonna lie down for a bit,I'm gonna lie down for some time,something else,0,"<p><img src=""../proexpec/t/t_b_15.jpg"" class=""scaled-img"" /></p><p>How likely do you think it is that someone would use these sentences? <br> Make sure that your responses sum up to one hundred percent.</p>",,128193,8,html-multi-slider-response,,15
43,Condition 1,0.0-9.0,,50,25,15,10,16537,I'm gonna lie down for a while,I'm gonna lie down for a bit,I'm gonna lie down for some time,something else,0,"<p><img src=""../proexpec/t/t_b_15.jpg"" class=""scaled-img"" /></p><p>How likely do you think it is that someone would use these sentences? <br> Make sure that your responses sum up to one hundred percent.</p>",,144984,9,html-multi-slider-response,,15
43,Condition 1,0.0-10.0,,20,40,10,30,21736,I'm gonna lie down for a while,I'm gonna lie down for a bit,I'm gonna lie down for some time,something else,0,"<p><img src=""../proexpec/t/t_b_75.jpg"" class=""scaled-img"" /></p><p>How likely do you think it is that someone would use these sentences? <br> Make sure that your responses sum up to one hundred percent.</p>",,166974,10,html-multi-slider-response,,75
43,Condition 1,0.0-11.0,,25,45,10,20,17780,I'm gonna lie down for a while,I'm gonna lie down for a bit,I'm gonna lie down for some time,something else,0,"<p><img src=""../proexpec/t/t_b_45.jpg"" class=""scaled-img"" /></p><p>How likely do you think it is that someone would use these sentences? <br> Make sure that your responses sum up to one hundred percent.</p>",,185008,11,html-multi-slider-response,,45
43,Condition 1,0.0-12.0,,10,10,10,70,13379,I'm gonna lie down for a while,I'm gonna lie down for a bit,I'm gonna lie down for some time,something else,0,"<p><img src=""../proexpec/t/t_b_10.jpg"" class=""scaled-img"" /></p><p>How likely do you think it is that someone would use these sentences? <br> Make sure that your responses sum up to one hundred percent.</p>",,198642,12,html-multi-slider-response,,10
43,Condition 1,0.0-13.0,,40,30,20,10,13591,I'm gonna lie down for a while,I'm gonna lie down for a bit,I'm gonna lie down for some time,something else,0,"<p><img src=""../proexpec/t/t_b_120.jpg"" class=""scaled-img"" /></p><p>How likely do you think it is that someone would use these sentences? <br> Make sure that your responses sum up to one hundred percent.</p>",,212486,13,html-multi-slider-response,,120
43,Condition 1,0.0-14.0,,50,25,0,25,12129,I'm gonna lie down for a while,I'm gonna lie down for a bit,I'm gonna lie down for some time,something else,0,"<p><img src=""../proexpec/t/t_b_60.jpg"" class=""scaled-img"" /></p><p>How likely do you think it is that someone would use these sentences? <br> Make sure that your responses sum up to one hundred percent.</p>",,224869,14,html-multi-slider-response,,60
43,Condition 1,0.0-15.0,,35,15,50,0,10951,I'm gonna lie down for a while,I'm gonna lie down for a bit,I'm gonna lie down for some time,something else,0,"<p><img src=""../proexpec/t/t_b_75.jpg"" class=""scaled-img"" /></p><p>How likely do you think it is that someone would use these sentences? <br> Make sure that your responses sum up to one hundred percent.</p>",,236075,15,html-multi-slider-response,,75
43,Condition 1,0.0-16.0,,60,10,15,15,13146,I'm gonna lie down for a while,I'm gonna lie down for a bit,I'm gonna lie down for some time,something else,0,"<p><img src=""../proexpec/t/t_b_120.jpg"" class=""scaled-img"" /></p><p>How likely do you think it is that someone would use these sentences? <br> Make sure that your responses sum up to one hundred percent.</p>",,249474,16,html-multi-slider-response,,120
43,Condition 1,0.0-17.0,,0,100,0,0,14564,I'm gonna lie down for a while,I'm gonna lie down for a bit,I'm gonna lie down for some time,something else,0,"<p><img src=""../proexpec/t/t_b_45.jpg"" class=""scaled-img"" /></p><p>How likely do you think it is that someone would use these sentences? <br> Make sure that your responses sum up to one hundred percent.</p>",,264291,17,html-multi-slider-response,,45
43,Condition 1,0.0-18.0,,0,0,0,100,7962,I'm gonna lie down for a while,I'm gonna lie down for a bit,I'm gonna lie down for some time,something else,0,"<p><img src=""../proexpec/t/t_b_5.jpg"" class=""scaled-img"" /></p><p>How likely do you think it is that someone would use these sentences? <br> Make sure that your responses sum up to one hundred percent.</p>",,272507,18,html-multi-slider-response,,5
43,Condition 1,0.0-19.0,,40,40,10,10,18812,I'm gonna lie down for a while,I'm gonna lie down for a bit,I'm gonna lie down for some time,something else,0,"<p><img src=""../proexpec/t/t_b_30.jpg"" class=""scaled-img"" /></p><p>How likely do you think it is that someone would use these sentences? <br> Make sure that your responses sum up to one hundred percent.</p>",,291573,19,html-multi-slider-response,,30
43,Condition 1,0.0-20.0,,70,50,30,0,16706,I'm gonna lie down for a while,I'm gonna lie down for a bit,I'm gonna lie down for some time,something else,0,"<p><img src=""../proexpec/t/t_b_90.jpg"" class=""scaled-img"" /></p><p>How likely do you think it is that someone would use these sentences? <br> Make sure that your responses sum up to one hundred percent.</p>",,308531,20,html-multi-slider-response,,90
43,Condition 1,0.0-21.0,,0,60,0,40,12089,I'm gonna lie down for a while,I'm gonna lie down for a bit,I'm gonna lie down for some time,something else,0,"<p><img src=""../proexpec/t/t_b_10.jpg"" class=""scaled-img"" /></p><p>How likely do you think it is that someone would use these sentences? <br> Make sure that your responses sum up to one hundred percent.</p>",,320875,21,html-multi-slider-response,,10
43,Condition 1,0.0-22.0,,0,0,0,100,5754,I'm gonna lie down for a while,I'm gonna lie down for a bit,I'm gonna lie down for some time,something else,0,"<p><img src=""../proexpec/t/t_b_5.jpg"" class=""scaled-img"" /></p><p>How likely do you think it is that someone would use these sentences? <br> Make sure that your responses sum up to one hundred percent.</p>",,326883,22,html-multi-slider-response,,5
47,Condition 1,0.0-5.0,,10,70,10,10,31549,I'm gonna lie down for a while,I'm gonna lie down for a bit,I'm gonna lie down for some time,something else,0,"<p><img src=""../proexpec/t/t_b_60.jpg"" class=""scaled-img"" /></p><p>How likely do you think it is that someone would use these sentences? <br> Make sure that your responses sum up to one hundred percent.</p>",,162829,5,html-multi-slider-response,,60
47,Condition 1,0.0-6.0,,30,40,30,0,25743,I'm gonna lie down for a while,I'm gonna lie down for a bit,I'm gonna lie down for some time,something else,0,"<p><img src=""../proexpec/t/t_b_75.jpg"" class=""scaled-img"" /></p><p>How likely do you think it is that someone would use these sentences? <br> Make sure that your responses sum up to one hundred percent.</p>",,188837,6,html-multi-slider-response,,75
47,Condition 1,0.0-7.0,,20,40,20,20,36652,I'm gonna lie down for a while,I'm gonna lie down for a bit,I'm gonna lie down for some time,something else,0,"<p><img src=""../proexpec/t/t_b_30.jpg"" class=""scaled-img"" /></p><p>How likely do you think it is that someone would use these sentences? <br> Make sure that your responses sum up to one hundred percent.</p>",,225750,7,html-multi-slider-response,,30
47,Condition 1,0.0-8.0,,20,40,20,20,23343,I'm gonna lie down for a while,I'm gonna lie down for a bit,I'm gonna lie down for some time,something else,0,"<p><img src=""../proexpec/t/t_b_60.jpg"" class=""scaled-img"" /></p><p>How likely do you think it is that someone would use these sentences? <br> Make sure that your responses sum up to one hundred percent.</p>",,249357,8,html-multi-slider-response,,60
47,Condition 1,0.0-9.0,,40,20,20,20,22121,I'm gonna lie down for a while,I'm gonna lie down for a bit,I'm gonna lie down for some time,something else,0,"<p><img src=""../proexpec/t/t_b_90.jpg"" class=""scaled-img"" /></p><p>How likely do you think it is that someone would use these sentences? <br> Make sure that your responses sum up to one hundred percent.</p>",,271733,9,html-multi-slider-response,,90
47,Condition 1,0.0-10.0,,50,20,20,10,23788,I'm gonna lie down for a while,I'm gonna lie down for a bit,I'm gonna lie down for some time,something else,0,"<p><img src=""../proexpec/t/t_b_120.jpg"" class=""scaled-img"" /></p><p>How likely do you think it is that someone would use these sentences? <br> Make sure that your responses sum up to one hundred percent.</p>",,295773,10,html-multi-slider-response,,120
47,Condition 1,0.0-11.0,,21,50,20,9,23248,I'm gonna lie down for a while,I'm gonna lie down for a bit,I'm gonna lie down for some time,something else,0,"<p><img src=""../proexpec/t/t_b_5.jpg"" class=""scaled-img"" /></p><p>How likely do you think it is that someone would use these sentences? <br> Make sure that your responses sum up to one hundred percent.</p>",,319277,11,html-multi-slider-response,,5
47,Condition 1,0.0-12.0,,40,20,20,20,20460,I'm gonna lie down for a while,I'm gonna lie down for a bit,I'm gonna lie down for some time,something else,0,"<p><img src=""../proexpec/t/t_b_90.jpg"" class=""scaled-img"" /></p><p>How likely do you think it is that someone would use these sentences? <br> Make sure that your responses sum up to one hundred percent.</p>",,339990,12,html-multi-slider-response,,90
47,Condition 1,0.0-13.0,,20,50,20,10,15044,I'm gonna lie down for a while,I'm gonna lie down for a bit,I'm gonna lie down for some time,something else,0,"<p><img src=""../proexpec/t/t_b_10.jpg"" class=""scaled-img"" /></p><p>How likely do you think it is that someone would use these sentences? <br> Make sure that your responses sum up to one hundred percent.</p>",,355285,13,html-multi-slider-response,,10
47,Condition 1,0.0-14.0,,20,60,10,10,19194,I'm gonna lie down for a while,I'm gonna lie down for a bit,I'm gonna lie down for some time,something else,0,"<p><img src=""../proexpec/t/t_b_30.jpg"" class=""scaled-img"" /></p><p>How likely do you think it is that someone would use these sentences? <br> Make sure that your responses sum up to one hundred percent.</p>",,374733,14,html-multi-slider-response,,30
47,Condition 1,0.0-15.0,,20,50,20,10,16531,I'm gonna lie down for a while,I'm gonna lie down for a bit,I'm gonna lie down for some time,something else,0,"<p><img src=""../proexpec/t/t_b_10.jpg"" class=""scaled-img"" /></p><p>How likely do you think it is that someone would use these sentences? <br> Make sure that your responses sum up to one hundred percent.</p>",,391525,15,html-multi-slider-response,,10
47,Condition 1,0.0-16.0,,50,20,21,9,11710,I'm gonna lie down for a while,I'm gonna lie down for a bit,I'm gonna lie down for some time,something else,0,"<p><img src=""../proexpec/t/t_b_75.jpg"" class=""scaled-img"" /></p><p>How likely do you think it is that someone would use these sentences? <br> Make sure that your responses sum up to one hundred percent.</p>",,403501,16,html-multi-slider-response,,75
47,Condition 1,0.0-17.0,,20,20,45,15,11814,I'm gonna lie down for a while,I'm gonna lie down for a bit,I'm gonna lie down for some time,something else,0,"<p><img src=""../proexpec/t/t_b_45.jpg"" class=""scaled-img"" /></p><p>How likely do you think it is that someone would use these sentences? <br> Make sure that your responses sum up to one hundred percent.</p>",,415573,17,html-multi-slider-response,,45
47,Condition 1,0.0-18.0,,20,50,10,20,14405,I'm gonna lie down for a while,I'm gonna lie down for a bit,I'm gonna lie down for some time,something else,0,"<p><img src=""../proexpec/t/t_b_5.jpg"" class=""scaled-img"" /></p><p>How likely do you think it is that someone would use these sentences? <br> Make sure that your responses sum up to one hundred percent.</p>",,430245,18,html-multi-slider-response,,5
47,Condition 1,0.0-19.0,,10,60,20,10,18730,I'm gonna lie down for a while,I'm gonna lie down for a bit,I'm gonna lie down for some time,something else,0,"<p><img src=""../proexpec/t/t_b_15.jpg"" class=""scaled-img"" /></p><p>How likely do you think it is that someone would use these sentences? <br> Make sure that your responses sum up to one hundred percent.</p>",,449230,19,html-multi-slider-response,,15
47,Condition 1,0.0-20.0,,41,20,20,19,14306,I'm gonna lie down for a while,I'm gonna lie down for a bit,I'm gonna lie down for some time,something else,0,"<p><img src=""../proexpec/t/t_b_120.jpg"" class=""scaled-img"" /></p><p>How likely do you think it is that someone would use these sentences? <br> Make sure that your responses sum up to one hundred percent.</p>",,463790,20,html-multi-slider-response,,120
47,Condition 1,0.0-21.0,,60,20,20,0,22783,I'm gonna lie down for a while,I'm gonna lie down for a bit,I'm gonna lie down for some time,something else,0,"<p><img src=""../proexpec/t/t_b_45.jpg"" class=""scaled-img"" /></p><p>How likely do you think it is that someone would use these sentences? <br> Make sure that your responses sum up to one hundred percent.</p>",,486837,21,html-multi-slider-response,,45
47,Condition 1,0.0-22.0,,20,50,10,20,20558,I'm gonna lie down for a while,I'm gonna lie down for a bit,I'm gonna lie down for some time,something else,0,"<p><img src=""../proexpec/t/t_b_15.jpg"" class=""scaled-img"" /></p><p>How likely do you think it is that someone would use these sentences? <br> Make sure that your responses sum up to one hundred percent.</p>",,507653,22,html-multi-slider-response,,15
50,Condition 1,0.0-5.0,,55,30,10,5,35484,I'm gonna lie down for a while,I'm gonna lie down for a bit,I'm gonna lie down for some time,something else,0,"<p><img src=""../proexpec/t/t_b_60.jpg"" class=""scaled-img"" /></p><p>How likely do you think it is that someone would use these sentences? <br> Make sure that your responses sum up to one hundred percent.</p>",,133887,5,html-multi-slider-response,,60
50,Condition 1,0.0-6.0,,55,25,10,10,36755,I'm gonna lie down for a while,I'm gonna lie down for a bit,I'm gonna lie down for some time,something else,0,"<p><img src=""../proexpec/t/t_b_15.jpg"" class=""scaled-img"" /></p><p>How likely do you think it is that someone would use these sentences? <br> Make sure that your responses sum up to one hundred percent.</p>",,170897,6,html-multi-slider-response,,15
50,Condition 1,0.0-7.0,,80,10,5,5,23177,I'm gonna lie down for a while,I'm gonna lie down for a bit,I'm gonna lie down for some time,something else,0,"<p><img src=""../proexpec/t/t_b_60.jpg"" class=""scaled-img"" /></p><p>How likely do you think it is that someone would use these sentences? <br> Make sure that your responses sum up to one hundred percent.</p>",,194332,7,html-multi-slider-response,,60
50,Condition 1,0.0-8.0,,50,30,5,15,26200,I'm gonna lie down for a while,I'm gonna lie down for a bit,I'm gonna lie down for some time,something else,0,"<p><img src=""../proexpec/t/t_b_120.jpg"" class=""scaled-img"" /></p><p>How likely do you think it is that someone would use these sentences? <br> Make sure that your responses sum up to one hundred percent.</p>",,220785,8,html-multi-slider-response,,120
50,Condition 1,0.0-9.0,,20,40,5,35,48900,I'm gonna lie down for a while,I'm gonna lie down for a bit,I'm gonna lie down for some time,something else,0,"<p><img src=""../proexpec/t/t_b_45.jpg"" class=""scaled-img"" /></p><p>How likely do you think it is that someone would use these sentences? <br> Make sure that your responses sum up to one hundred percent.</p>",,269938,9,html-multi-slider-response,,45
50,Condition 1,0.0-10.0,,50,35,5,10,18812,I'm gonna lie down for a while,I'm gonna lie down for a bit,I'm gonna lie down for some time,something else,0,"<p><img src=""../proexpec/t/t_b_90.jpg"" class=""scaled-img"" /></p><p>How likely do you think it is that someone would use these sentences? <br> Make sure that your responses sum up to one hundred percent.</p>",,289002,10,html-multi-slider-response,,90
50,Condition 1,0.0-11.0,,30,45,10,15,25757,I'm gonna lie down for a while,I'm gonna lie down for a bit,I'm gonna lie down for some time,something else,0,"<p><img src=""../proexpec/t/t_b_75.jpg"" class=""scaled-img"" /></p><p>How likely do you think it is that someone would use these sentences? <br> Make sure that your responses sum up to one hundred percent.</p>",,315025,11,html-multi-slider-response,,75
50,Condition 1,0.0-12.0,,55,25,5,15,37888,I'm gonna lie down for a while,I'm gonna lie down for a bit,I'm gonna lie down for some time,something else,0,"<p><img src=""../proexpec/t/t_b_90.jpg"" class=""scaled-img"" /></p><p>How likely do you think it is that someone would use these sentences? <br> Make sure that your responses sum up to one hundred percent.</p>",,353165,12,html-multi-slider-response,,90
50,Condition 1,0.0-13.0,,15,60,5,20,13271,I'm gonna lie down for a while,I'm gonna lie down for a bit,I'm gonna lie down for some time,something else,0,"<p><img src=""../proexpec/t/t_b_30.jpg"" class=""scaled-img"" /></p><p>How likely do you think it is that someone would use these sentences? <br> Make sure that your responses sum up to one hundred percent.</p>",,366688,13,html-multi-slider-response,,30
50,Condition 1,0.0-14.0,,40,30,10,20,30329,I'm gonna lie down for a while,I'm gonna lie down for a bit,I'm gonna lie down for some time,something else,0,"<p><img src=""../proexpec/t/t_b_75.jpg"" class=""scaled-img"" /></p><p>How likely do you think it is that someone would use these sentences? <br> Make sure that your responses sum up to one hundred percent.</p>",,397275,14,html-multi-slider-response,,75
50,Condition 1,0.0-15.0,,5,70,5,20,15502,I'm gonna lie down for a while,I'm gonna lie down for a bit,I'm gonna lie down for some time,something else,0,"<p><img src=""../proexpec/t/t_b_10.jpg"" class=""scaled-img"" /></p><p>How likely do you think it is that someone would use these sentences? <br> Make sure that your responses sum up to one hundred percent.</p>",,413028,15,html-multi-slider-response,,10
50,Condition 1,0.0-16.0,,5,5,5,85,21267,I'm gonna lie down for a while,I'm gonna lie down for a bit,I'm gonna lie down for some time,something else,0,"<p><img src=""../proexpec/t/t_b_10.jpg"" class=""scaled-img"" /></p><p>How likely do you think it is that someone would use these sentences? <br> Make sure that your responses sum up to one hundred percent.</p>",,434551,16,html-multi-slider-response,,10
50,Condition 1,0.0-17.0,,25,40,15,20,53023,I'm gonna lie down for a while,I'm gonna lie down for a bit,I'm gonna lie down for some time,something else,0,"<p><img src=""../proexpec/t/t_b_45.jpg"" class=""scaled-img"" /></p><p>How likely do you think it is that someone would use these sentences? <br> Make sure that your responses sum up to one hundred percent.</p>",,487828,17,html-multi-slider-response,,45
50,Condition 1,0.0-18.0,,5,5,5,85,12137,I'm gonna lie down for a while,I'm gonna lie down for a bit,I'm gonna lie down for some time,something else,0,"<p><img src=""../proexpec/t/t_b_5.jpg"" class=""scaled-img"" /></p><p>How likely do you think it is that someone would use these sentences? <br> Make sure that your responses sum up to one hundred percent.</p>",,500216,18,html-multi-slider-response,,5
50,Condition 1,0.0-19.0,,20,60,5,15,34717,I'm gonna lie down for a while,I'm gonna lie down for a bit,I'm gonna lie down for some time,something else,0,"<p><img src=""../proexpec/t/t_b_30.jpg"" class=""scaled-img"" /></p><p>How likely do you think it is that someone would use these sentences? <br> Make sure that your responses sum up to one hundred percent.</p>",,535185,19,html-multi-slider-response,,30
50,Condition 1,0.0-20.0,,10,20,5,65,18033,I'm gonna lie down for a while,I'm gonna lie down for a bit,I'm gonna lie down for some time,something else,0,"<p><img src=""../proexpec/t/t_b_15.jpg"" class=""scaled-img"" /></p><p>How likely do you think it is that someone would use these sentences? <br> Make sure that your responses sum up to one hundred percent.</p>",,553474,20,html-multi-slider-response,,15
50,Condition 1,0.0-21.0,,5,5,5,85,16095,I'm gonna lie down for a while,I'm gonna lie down for a bit,I'm gonna lie down for some time,something else,0,"<p><img src=""../proexpec/t/t_b_5.jpg"" class=""scaled-img"" /></p><p>How likely do you think it is that someone would use these sentences? <br> Make sure that your responses sum up to one hundred percent.</p>",,569822,21,html-multi-slider-response,,5
50,Condition 1,0.0-22.0,,60,20,10,10,20792,I'm gonna lie down for a while,I'm gonna lie down for a bit,I'm gonna lie down for some time,something else,0,"<p><img src=""../proexpec/t/t_b_120.jpg"" class=""scaled-img"" /></p><p>How likely do you think it is that someone would use these sentences? <br> Make sure that your responses sum up to one hundred percent.</p>",,590871,22,html-multi-slider-response,,120
53,Condition 1,0.0-5.0,,20,70,0,10,24878,I'm gonna lie down for a while,I'm gonna lie down for a bit,I'm gonna lie down for some time,something else,0,"<p><img src=""../proexpec/t/t_b_5.jpg"" class=""scaled-img"" /></p><p>How likely do you think it is that someone would use these sentences? <br> Make sure that your responses sum up to one hundred percent.</p>",,58301,5,html-multi-slider-response,,5
53,Condition 1,0.0-6.0,,20,60,0,20,24988,I'm gonna lie down for a while,I'm gonna lie down for a bit,I'm gonna lie down for some time,something else,0,"<p><img src=""../proexpec/t/t_b_30.jpg"" class=""scaled-img"" /></p><p>How likely do you think it is that someone would use these sentences? <br> Make sure that your responses sum up to one hundred percent.</p>",,83557,6,html-multi-slider-response,,30
53,Condition 1,0.0-7.0,,10,75,0,15,15950,I'm gonna lie down for a while,I'm gonna lie down for a bit,I'm gonna lie down for some time,something else,0,"<p><img src=""../proexpec/t/t_b_15.jpg"" class=""scaled-img"" /></p><p>How likely do you think it is that someone would use these sentences? <br> Make sure that your responses sum up to one hundred percent.</p>",,99768,7,html-multi-slider-response,,15
53,Condition 1,0.0-8.0,,10,80,0,10,10173,I'm gonna lie down for a while,I'm gonna lie down for a bit,I'm gonna lie down for some time,something else,0,"<p><img src=""../proexpec/t/t_b_10.jpg"" class=""scaled-img"" /></p><p>How likely do you think it is that someone would use these sentences? <br> Make sure that your responses sum up to one hundred percent.</p>",,110195,8,html-multi-slider-response,,10
53,Condition 1,0.0-9.0,,70,10,0,20,13557,I'm gonna lie down for a while,I'm gonna lie down for a bit,I'm gonna lie down for some time,something else,0,"<p><img src=""../proexpec/t/t_b_120.jpg"" class=""scaled-img"" /></p><p>How likely do you think it is that someone would use these sentences? <br> Make sure that your responses sum up to one hundred percent.</p>",,124003,9,html-multi-slider-response,,120
53,Condition 1,0.0-10.0,,70,15,0,15,8815,I'm gonna lie down for a while,I'm gonna lie down for a bit,I'm gonna lie down for some time,something else,0,"<p><img src=""../proexpec/t/t_b_75.jpg"" class=""scaled-img"" /></p><p>How likely do you think it is that someone would use these sentences? <br> Make sure that your responses sum up to one hundred percent.</p>",,133076,10,html-multi-slider-response,,75
53,Condition 1,0.0-11.0,,0,30,0,70,12271,I'm gonna lie down for a while,I'm gonna lie down for a bit,I'm gonna lie down for some time,something else,0,"<p><img src=""../proexpec/t/t_b_5.jpg"" class=""scaled-img"" /></p><p>How likely do you think it is that someone would use these sentences? <br> Make sure that your responses sum up to one hundred percent.</p>",,145599,11,html-multi-slider-response,,5
53,Condition 1,0.0-12.0,,45,40,0,15,8575,I'm gonna lie down for a while,I'm gonna lie down for a bit,I'm gonna lie down for some time,something else,0,"<p><img src=""../proexpec/t/t_b_60.jpg"" class=""scaled-img"" /></p><p>How likely do you think it is that someone would use these sentences? <br> Make sure that your responses sum up to one hundred percent.</p>",,154428,12,html-multi-slider-response,,60
53,Condition 1,0.0-13.0,,0,45,0,55,10206,I'm gonna lie down for a while,I'm gonna lie down for a bit,I'm gonna lie down for some time,something else,0,"<p><img src=""../proexpec/t/t_b_10.jpg"" class=""scaled-img"" /></p><p>How likely do you think it is that someone would use these sentences? <br> Make sure that your responses sum up to one hundred percent.</p>",,164891,13,html-multi-slider-response,,10
53,Condition 1,0.0-14.0,,55,25,0,20,50354,I'm gonna lie down for a while,I'm gonna lie down for a bit,I'm gonna lie down for some time,something else,0,"<p><img src=""../proexpec/t/t_b_90.jpg"" class=""scaled-img"" /></p><p>How likely do you think it is that someone would use these sentences? <br> Make sure that your responses sum up to one hundred percent.</p>",,215497,14,html-multi-slider-response,,90
53,Condition 1,0.0-15.0,,55,31,0,14,145286,I'm gonna lie down for a while,I'm gonna lie down for a bit,I'm gonna lie down for some time,something else,0,"<p><img src=""../proexpec/t/t_b_60.jpg"" class=""scaled-img"" /></p><p>How likely do you think it is that someone would use these sentences? <br> Make sure that your responses sum up to one hundred percent.</p>",,361036,15,html-multi-slider-response,,60
53,Condition 1,0.0-16.0,,40,40,0,20,8123,I'm gonna lie down for a while,I'm gonna lie down for a bit,I'm gonna lie down for some time,something else,0,"<p><img src=""../proexpec/t/t_b_45.jpg"" class=""scaled-img"" /></p><p>How likely do you think it is that someone would use these sentences? <br> Make sure that your responses sum up to one hundred percent.</p>",,369415,16,html-multi-slider-response,,45
53,Condition 1,0.0-17.0,,55,30,0,15,67223,I'm gonna lie down for a while,I'm gonna lie down for a bit,I'm gonna lie down for some time,something else,0,"<p><img src=""../proexpec/t/t_b_75.jpg"" class=""scaled-img"" /></p><p>How likely do you think it is that someone would use these sentences? <br> Make sure that your responses sum up to one hundred percent.</p>",,436896,17,html-multi-slider-response,,75
53,Condition 1,0.0-18.0,,25,50,0,25,24846,I'm gonna lie down for a while,I'm gonna lie down for a bit,I'm gonna lie down for some time,something else,0,"<p><img src=""../proexpec/t/t_b_30.jpg"" class=""scaled-img"" /></p><p>How likely do you think it is that someone would use these sentences? <br> Make sure that your responses sum up to one hundred percent.</p>",,461994,18,html-multi-slider-response,,30
53,Condition 1,0.0-19.0,,35,50,0,15,9282,I'm gonna lie down for a while,I'm gonna lie down for a bit,I'm gonna lie down for some time,something else,0,"<p><img src=""../proexpec/t/t_b_45.jpg"" class=""scaled-img"" /></p><p>How likely do you think it is that someone would use these sentences? <br> Make sure that your responses sum up to one hundred percent.</p>",,471530,19,html-multi-slider-response,,45
53,Condition 1,0.0-20.0,,60,15,0,25,11767,I'm gonna lie down for a while,I'm gonna lie down for a bit,I'm gonna lie down for some time,something else,0,"<p><img src=""../proexpec/t/t_b_120.jpg"" class=""scaled-img"" /></p><p>How likely do you think it is that someone would use these sentences? <br> Make sure that your responses sum up to one hundred percent.</p>",,483549,20,html-multi-slider-response,,120
53,Condition 1,0.0-21.0,,63,14,0,23,9672,I'm gonna lie down for a while,I'm gonna lie down for a bit,I'm gonna lie down for some time,something else,0,"<p><img src=""../proexpec/t/t_b_90.jpg"" class=""scaled-img"" /></p><p>How likely do you think it is that someone would use these sentences? <br> Make sure that your responses sum up to one hundred percent.</p>",,493474,21,html-multi-slider-response,,90
53,Condition 1,0.0-22.0,,0,70,0,30,10787,I'm gonna lie down for a while,I'm gonna lie down for a bit,I'm gonna lie down for some time,something else,0,"<p><img src=""../proexpec/t/t_b_15.jpg"" class=""scaled-img"" /></p><p>How likely do you think it is that someone would use these sentences? <br> Make sure that your responses sum up to one hundred percent.</p>",,504514,22,html-multi-slider-response,,15
9,Condition 1,0.0-5.0,,26,66,1,7,58222,I'm gonna lie down for a while,I'm gonna lie down for a bit,I'm gonna lie down for some time,something else,0,"<p><img src=""../proexpec/t/t_b_120.jpg"" class=""scaled-img"" /></p><p>How likely do you think it is that someone would use these sentences? <br> Make sure that your responses sum up to one hundred percent.</p>",,136913,5,html-multi-slider-response,,120
9,Condition 1,0.0-6.0,,24,56,6,14,24179,I'm gonna lie down for a while,I'm gonna lie down for a bit,I'm gonna lie down for some time,something else,0,"<p><img src=""../proexpec/t/t_b_10.jpg"" class=""scaled-img"" /></p><p>How likely do you think it is that someone would use these sentences? <br> Make sure that your responses sum up to one hundred percent.</p>",,161346,6,html-multi-slider-response,,10
9,Condition 1,0.0-7.0,,29,51,3,17,25792,I'm gonna lie down for a while,I'm gonna lie down for a bit,I'm gonna lie down for some time,something else,0,"<p><img src=""../proexpec/t/t_b_120.jpg"" class=""scaled-img"" /></p><p>How likely do you think it is that someone would use these sentences? <br> Make sure that your responses sum up to one hundred percent.</p>",,187397,7,html-multi-slider-response,,120
9,Condition 1,0.0-8.0,,17,59,9,15,30199,I'm gonna lie down for a while,I'm gonna lie down for a bit,I'm gonna lie down for some time,something else,0,"<p><img src=""../proexpec/t/t_b_60.jpg"" class=""scaled-img"" /></p><p>How likely do you think it is that someone would use these sentences? <br> Make sure that your responses sum up to one hundred percent.</p>",,217862,8,html-multi-slider-response,,60
9,Condition 1,0.0-9.0,,4,66,0,30,22441,I'm gonna lie down for a while,I'm gonna lie down for a bit,I'm gonna lie down for some time,something else,0,"<p><img src=""../proexpec/t/t_b_15.jpg"" class=""scaled-img"" /></p><p>How likely do you think it is that someone would use these sentences? <br> Make sure that your responses sum up to one hundred percent.</p>",,240562,9,html-multi-slider-response,,15
9,Condition 1,0.0-10.0,,30,48,7,15,18306,I'm gonna lie down for a while,I'm gonna lie down for a bit,I'm gonna lie down for some time,something else,0,"<p><img src=""../proexpec/t/t_b_45.jpg"" class=""scaled-img"" /></p><p>How likely do you think it is that someone would use these sentences? <br> Make sure that your responses sum up to one hundred percent.</p>",,259126,10,html-multi-slider-response,,45
9,Condition 1,0.0-11.0,,0,57,0,43,27577,I'm gonna lie down for a while,I'm gonna lie down for a bit,I'm gonna lie down for some time,something else,0,"<p><img src=""../proexpec/t/t_b_5.jpg"" class=""scaled-img"" /></p><p>How likely do you think it is that someone would use these sentences? <br> Make sure that your responses sum up to one hundred percent.</p>",,286959,11,html-multi-slider-response,,5
9,Condition 1,0.0-12.0,,33,42,5,20,13388,I'm gonna lie down for a while,I'm gonna lie down for a bit,I'm gonna lie down for some time,something else,0,"<p><img src=""../proexpec/t/t_b_45.jpg"" class=""scaled-img"" /></p><p>How likely do you think it is that someone would use these sentences? <br> Make sure that your responses sum up to one hundred percent.</p>",,300602,12,html-multi-slider-response,,45
9,Condition 1,0.0-13.0,,49,25,26,0,11659,I'm gonna lie down for a while,I'm gonna lie down for a bit,I'm gonna lie down for some time,something else,0,"<p><img src=""../proexpec/t/t_b_90.jpg"" class=""scaled-img"" /></p><p>How likely do you think it is that someone would use these sentences? <br> Make sure that your responses sum up to one hundred percent.</p>",,312519,13,html-multi-slider-response,,90
9,Condition 1,0.0-14.0,,43,37,20,0,17169,I'm gonna lie down for a while,I'm gonna lie down for a bit,I'm gonna lie down for some time,something else,0,"<p><img src=""../proexpec/t/t_b_90.jpg"" class=""scaled-img"" /></p><p>How likely do you think it is that someone would use these sentences? <br> Make sure that your responses sum up to one hundred percent.</p>",,329952,14,html-multi-slider-response,,90
9,Condition 1,0.0-15.0,,0,58,0,42,10899,I'm gonna lie down for a while,I'm gonna lie down for a bit,I'm gonna lie down for some time,something else,0,"<p><img src=""../proexpec/t/t_b_5.jpg"" class=""scaled-img"" /></p><p>How likely do you think it is that someone would use these sentences? <br> Make sure that your responses sum up to one hundred percent.</p>",,341109,15,html-multi-slider-response,,5
9,Condition 1,0.0-16.0,,27,61,8,4,23001,I'm gonna lie down for a while,I'm gonna lie down for a bit,I'm gonna lie down for some time,something else,0,"<p><img src=""../proexpec/t/t_b_30.jpg"" class=""scaled-img"" /></p><p>How likely do you think it is that someone would use these sentences? <br> Make sure that your responses sum up to one hundred percent.</p>",,364368,16,html-multi-slider-response,,30
9,Condition 1,0.0-17.0,,9,69,0,22,25958,I'm gonna lie down for a while,I'm gonna lie down for a bit,I'm gonna lie down for some time,something else,0,"<p><img src=""../proexpec/t/t_b_15.jpg"" class=""scaled-img"" /></p><p>How likely do you think it is that someone would use these sentences? <br> Make sure that your responses sum up to one hundred percent.</p>",,390580,17,html-multi-slider-response,,15
9,Condition 1,0.0-18.0,,22,58,4,16,25187,I'm gonna lie down for a while,I'm gonna lie down for a bit,I'm gonna lie down for some time,something else,0,"<p><img src=""../proexpec/t/t_b_60.jpg"" class=""scaled-img"" /></p><p>How likely do you think it is that someone would use these sentences? <br> Make sure that your responses sum up to one hundred percent.</p>",,416025,18,html-multi-slider-response,,60
9,Condition 1,0.0-19.0,,5,75,0,20,22367,I'm gonna lie down for a while,I'm gonna lie down for a bit,I'm gonna lie down for some time,something else,0,"<p><img src=""../proexpec/t/t_b_10.jpg"" class=""scaled-img"" /></p><p>How likely do you think it is that someone would use these sentences? <br> Make sure that your responses sum up to one hundred percent.</p>",,438648,19,html-multi-slider-response,,10
9,Condition 1,0.0-20.0,,38,45,17,0,25676,I'm gonna lie down for a while,I'm gonna lie down for a bit,I'm gonna lie down for some time,something else,0,"<p><img src=""../proexpec/t/t_b_75.jpg"" class=""scaled-img"" /></p><p>How likely do you think it is that someone would use these sentences? <br> Make sure that your responses sum up to one hundred percent.</p>",,464585,20,html-multi-slider-response,,75
9,Condition 1,0.0-21.0,,39,46,15,0,17309,I'm gonna lie down for a while,I'm gonna lie down for a bit,I'm gonna lie down for some time,something else,0,"<p><img src=""../proexpec/t/t_b_75.jpg"" class=""scaled-img"" /></p><p>How likely do you think it is that someone would use these sentences? <br> Make sure that your responses sum up to one hundred percent.</p>",,482158,21,html-multi-slider-response,,75
9,Condition 1,0.0-22.0,,34,62,4,0,16604,I'm gonna lie down for a while,I'm gonna lie down for a bit,I'm gonna lie down for some time,something else,0,"<p><img src=""../proexpec/t/t_b_30.jpg"" class=""scaled-img"" /></p><p>How likely do you think it is that someone would use these sentences? <br> Make sure that your responses sum up to one hundred percent.</p>",,499027,22,html-multi-slider-response,,30
20,Condition 1,0.0-5.0,,25,40,20,15,36787,I'm gonna lie down for a while,I'm gonna lie down for a bit,I'm gonna lie down for some time,something else,0,"<p><img src=""../proexpec/t/t_b_5.jpg"" class=""scaled-img"" /></p><p>How likely do you think it is that someone would use these sentences? <br> Make sure that your responses sum up to one hundred percent.</p>",,58696,5,html-multi-slider-response,,5
20,Condition 1,0.0-6.0,,21,31,21,27,35488,I'm gonna lie down for a while,I'm gonna lie down for a bit,I'm gonna lie down for some time,something else,0,"<p><img src=""../proexpec/t/t_b_60.jpg"" class=""scaled-img"" /></p><p>How likely do you think it is that someone would use these sentences? <br> Make sure that your responses sum up to one hundred percent.</p>",,94441,6,html-multi-slider-response,,60
20,Condition 1,0.0-7.0,,20,30,25,25,27974,I'm gonna lie down for a while,I'm gonna lie down for a bit,I'm gonna lie down for some time,something else,0,"<p><img src=""../proexpec/t/t_b_75.jpg"" class=""scaled-img"" /></p><p>How likely do you think it is that someone would use these sentences? <br> Make sure that your responses sum up to one hundred percent.</p>",,122667,7,html-multi-slider-response,,75
20,Condition 1,0.0-8.0,,11,10,10,69,24698,I'm gonna lie down for a while,I'm gonna lie down for a bit,I'm gonna lie down for some time,something else,0,"<p><img src=""../proexpec/t/t_b_5.jpg"" class=""scaled-img"" /></p><p>How likely do you think it is that someone would use these sentences? <br> Make sure that your responses sum up to one hundred percent.</p>",,147621,8,html-multi-slider-response,,5
20,Condition 1,0.0-9.0,,10,30,10,50,14849,I'm gonna lie down for a while,I'm gonna lie down for a bit,I'm gonna lie down for some time,something else,0,"<p><img src=""../proexpec/t/t_b_15.jpg"" class=""scaled-img"" /></p><p>How likely do you think it is that someone would use these sentences? <br> Make sure that your responses sum up to one hundred percent.</p>",,162723,9,html-multi-slider-response,,15
20,Condition 1,0.0-10.0,,10,35,15,40,18977,I'm gonna lie down for a while,I'm gonna lie down for a bit,I'm gonna lie down for some time,something else,0,"<p><img src=""../proexpec/t/t_b_10.jpg"" class=""scaled-img"" /></p><p>How likely do you think it is that someone would use these sentences? <br> Make sure that your responses sum up to one hundred percent.</p>",,181957,10,html-multi-slider-response,,10
20,Condition 1,0.0-11.0,,30,20,40,10,12165,I'm gonna lie down for a while,I'm gonna lie down for a bit,I'm gonna lie down for some time,something else,0,"<p><img src=""../proexpec/t/t_b_90.jpg"" class=""scaled-img"" /></p><p>How likely do you think it is that someone would use these sentences? <br> Make sure that your responses sum up to one hundred percent.</p>",,194374,11,html-multi-slider-response,,90
20,Condition 1,0.0-12.0,,15,30,10,45,17211,I'm gonna lie down for a while,I'm gonna lie down for a bit,I'm gonna lie down for some time,something else,0,"<p><img src=""../proexpec/t/t_b_10.jpg"" class=""scaled-img"" /></p><p>How likely do you think it is that someone would use these sentences? <br> Make sure that your responses sum up to one hundred percent.</p>",,211837,12,html-multi-slider-response,,10
20,Condition 1,0.0-13.0,,20,35,25,20,18557,I'm gonna lie down for a while,I'm gonna lie down for a bit,I'm gonna lie down for some time,something else,0,"<p><img src=""../proexpec/t/t_b_30.jpg"" class=""scaled-img"" /></p><p>How likely do you think it is that someone would use these sentences? <br> Make sure that your responses sum up to one hundred percent.</p>",,230648,13,html-multi-slider-response,,30
20,Condition 1,0.0-14.0,,30,10,45,15,15856,I'm gonna lie down for a while,I'm gonna lie down for a bit,I'm gonna lie down for some time,something else,0,"<p><img src=""../proexpec/t/t_b_120.jpg"" class=""scaled-img"" /></p><p>How likely do you think it is that someone would use these sentences? <br> Make sure that your responses sum up to one hundred percent.</p>",,246756,14,html-multi-slider-response,,120
20,Condition 1,0.0-15.0,,15,30,15,40,19637,I'm gonna lie down for a while,I'm gonna lie down for a bit,I'm gonna lie down for some time,something else,0,"<p><img src=""../proexpec/t/t_b_30.jpg"" class=""scaled-img"" /></p><p>How likely do you think it is that someone would use these sentences? <br> Make sure that your responses sum up to one hundred percent.</p>",,266645,15,html-multi-slider-response,,30
20,Condition 1,0.0-16.0,,41,15,34,10,16161,I'm gonna lie down for a while,I'm gonna lie down for a bit,I'm gonna lie down for some time,something else,0,"<p><img src=""../proexpec/t/t_b_75.jpg"" class=""scaled-img"" /></p><p>How likely do you think it is that someone would use these sentences? <br> Make sure that your responses sum up to one hundred percent.</p>",,283057,16,html-multi-slider-response,,75
20,Condition 1,0.0-17.0,,20,20,30,30,22457,I'm gonna lie down for a while,I'm gonna lie down for a bit,I'm gonna lie down for some time,something else,0,"<p><img src=""../proexpec/t/t_b_90.jpg"" class=""scaled-img"" /></p><p>How likely do you think it is that someone would use these sentences? <br> Make sure that your responses sum up to one hundred percent.</p>",,305766,17,html-multi-slider-response,,90
20,Condition 1,0.0-18.0,,15,45,15,25,12604,I'm gonna lie down for a while,I'm gonna lie down for a bit,I'm gonna lie down for some time,something else,0,"<p><img src=""../proexpec/t/t_b_45.jpg"" class=""scaled-img"" /></p><p>How likely do you think it is that someone would use these sentences? <br> Make sure that your responses sum up to one hundred percent.</p>",,318622,18,html-multi-slider-response,,45
20,Condition 1,0.0-19.0,,10,25,10,55,13069,I'm gonna lie down for a while,I'm gonna lie down for a bit,I'm gonna lie down for some time,something else,0,"<p><img src=""../proexpec/t/t_b_15.jpg"" class=""scaled-img"" /></p><p>How likely do you think it is that someone would use these sentences? <br> Make sure that your responses sum up to one hundred percent.</p>",,331952,19,html-multi-slider-response,,15
20,Condition 1,0.0-20.0,,25,22,37,16,17253,I'm gonna lie down for a while,I'm gonna lie down for a bit,I'm gonna lie down for some time,something else,0,"<p><img src=""../proexpec/t/t_b_60.jpg"" class=""scaled-img"" /></p><p>How likely do you think it is that someone would use these sentences? <br> Make sure that your responses sum up to one hundred percent.</p>",,349458,20,html-multi-slider-response,,60
20,Condition 1,0.0-21.0,,20,20,30,30,15856,I'm gonna lie down for a while,I'm gonna lie down for a bit,I'm gonna lie down for some time,something else,0,"<p><img src=""../proexpec/t/t_b_45.jpg"" class=""scaled-img"" /></p><p>How likely do you think it is that someone would use these sentences? <br> Make sure that your responses sum up to one hundred percent.</p>",,365580,21,html-multi-slider-response,,45
20,Condition 1,0.0-22.0,,40,16,24,20,23921,I'm gonna lie down for a while,I'm gonna lie down for a bit,I'm gonna lie down for some time,something else,0,"<p><img src=""../proexpec/t/t_b_120.jpg"" class=""scaled-img"" /></p><p>How likely do you think it is that someone would use these sentences? <br> Make sure that your responses sum up to one hundred percent.</p>",,389766,22,html-multi-slider-response,,120
37,Condition 1,0.0-5.0,,33,33,5,29,115907,I'm gonna lie down for a while,I'm gonna lie down for a bit,I'm gonna lie down for some time,something else,0,"<p><img src=""../proexpec/t/t_b_10.jpg"" class=""scaled-img"" /></p><p>How likely do you think it is that someone would use these sentences? <br> Make sure that your responses sum up to one hundred percent.</p>",,187947,5,html-multi-slider-response,,10
37,Condition 1,0.0-6.0,,34,34,5,27,50848,I'm gonna lie down for a while,I'm gonna lie down for a bit,I'm gonna lie down for some time,something else,0,"<p><img src=""../proexpec/t/t_b_120.jpg"" class=""scaled-img"" /></p><p>How likely do you think it is that someone would use these sentences? <br> Make sure that your responses sum up to one hundred percent.</p>",,239059,6,html-multi-slider-response,,120
37,Condition 1,0.0-7.0,,34,34,5,27,26037,I'm gonna lie down for a while,I'm gonna lie down for a bit,I'm gonna lie down for some time,something else,0,"<p><img src=""../proexpec/t/t_b_75.jpg"" class=""scaled-img"" /></p><p>How likely do you think it is that someone would use these sentences? <br> Make sure that your responses sum up to one hundred percent.</p>",,265369,7,html-multi-slider-response,,75
37,Condition 1,0.0-8.0,,34,34,5,27,32345,I'm gonna lie down for a while,I'm gonna lie down for a bit,I'm gonna lie down for some time,something else,0,"<p><img src=""../proexpec/t/t_b_90.jpg"" class=""scaled-img"" /></p><p>How likely do you think it is that someone would use these sentences? <br> Make sure that your responses sum up to one hundred percent.</p>",,297977,8,html-multi-slider-response,,90
37,Condition 1,0.0-9.0,,34,34,5,27,29753,I'm gonna lie down for a while,I'm gonna lie down for a bit,I'm gonna lie down for some time,something else,0,"<p><img src=""../proexpec/t/t_b_15.jpg"" class=""scaled-img"" /></p><p>How likely do you think it is that someone would use these sentences? <br> Make sure that your responses sum up to one hundred percent.</p>",,327986,9,html-multi-slider-response,,15
37,Condition 1,0.0-10.0,,34,34,5,27,18676,I'm gonna lie down for a while,I'm gonna lie down for a bit,I'm gonna lie down for some time,something else,0,"<p><img src=""../proexpec/t/t_b_45.jpg"" class=""scaled-img"" /></p><p>How likely do you think it is that someone would use these sentences? <br> Make sure that your responses sum up to one hundred percent.</p>",,346933,10,html-multi-slider-response,,45
37,Condition 1,0.0-11.0,,34,34,5,27,21934,I'm gonna lie down for a while,I'm gonna lie down for a bit,I'm gonna lie down for some time,something else,0,"<p><img src=""../proexpec/t/t_b_30.jpg"" class=""scaled-img"" /></p><p>How likely do you think it is that someone would use these sentences? <br> Make sure that your responses sum up to one hundred percent.</p>",,369132,11,html-multi-slider-response,,30
37,Condition 1,0.0-12.0,,34,34,5,27,43830,I'm gonna lie down for a while,I'm gonna lie down for a bit,I'm gonna lie down for some time,something else,0,"<p><img src=""../proexpec/t/t_b_15.jpg"" class=""scaled-img"" /></p><p>How likely do you think it is that someone would use these sentences? <br> Make sure that your responses sum up to one hundred percent.</p>",,413217,12,html-multi-slider-response,,15
37,Condition 1,0.0-13.0,,34,34,5,27,24144,I'm gonna lie down for a while,I'm gonna lie down for a bit,I'm gonna lie down for some time,something else,0,"<p><img src=""../proexpec/t/t_b_10.jpg"" class=""scaled-img"" /></p><p>How likely do you think it is that someone would use these sentences? <br> Make sure that your responses sum up to one hundred percent.</p>",,437634,13,html-multi-slider-response,,10
37,Condition 1,0.0-14.0,,34,34,5,27,23639,I'm gonna lie down for a while,I'm gonna lie down for a bit,I'm gonna lie down for some time,something else,0,"<p><img src=""../proexpec/t/t_b_75.jpg"" class=""scaled-img"" /></p><p>How likely do you think it is that someone would use these sentences? <br> Make sure that your responses sum up to one hundred percent.</p>",,461541,14,html-multi-slider-response,,75
37,Condition 1,0.0-15.0,,34,34,5,27,16725,I'm gonna lie down for a while,I'm gonna lie down for a bit,I'm gonna lie down for some time,something else,0,"<p><img src=""../proexpec/t/t_b_60.jpg"" class=""scaled-img"" /></p><p>How likely do you think it is that someone would use these sentences? <br> Make sure that your responses sum up to one hundred percent.</p>",,478521,15,html-multi-slider-response,,60
