workerid,proliferate.condition,internal_node_id,response,response_0,response_1,response_2,response_3,rt,slider_0,slider_1,slider_2,slider_3,slider_start,stimulus,success,time_elapsed,trial_index,trial_type,error,time_value
24,Condition 1,0.0-5.0,,20,35,40,5,58548,I'll be here for a bit,I'll be here for some time,I'll be here for a while,something else,0,"<p><img src=""../proexpec/q/q_b_20.jpg"" class=""scaled-img"" /></p><p>How likely do you think it is that someone would use these sentences? <br> Make sure that your responses sum up to one hundred percent.</p>",,150269,5,html-multi-slider-response,,20
24,Condition 1,0.0-6.0,,20,35,40,5,27435,I'll be here for a bit,I'll be here for some time,I'll be here for a while,something else,0,"<p><img src=""../proexpec/q/q_b_5.jpg"" class=""scaled-img"" /></p><p>How likely do you think it is that someone would use these sentences? <br> Make sure that your responses sum up to one hundred percent.</p>",,177956,6,html-multi-slider-response,,5
24,Condition 1,0.0-7.0,,50,25,25,0,36088,I'll be here for a bit,I'll be here for some time,I'll be here for a while,something else,0,"<p><img src=""../proexpec/q/q_b_15.jpg"" class=""scaled-img"" /></p><p>How likely do you think it is that someone would use these sentences? <br> Make sure that your responses sum up to one hundred percent.</p>",,214315,7,html-multi-slider-response,,15
24,Condition 1,0.0-8.0,,0,45,50,5,20224,I'll be here for a bit,I'll be here for some time,I'll be here for a while,something else,0,"<p><img src=""../proexpec/q/q_b_120.jpg"" class=""scaled-img"" /></p><p>How likely do you think it is that someone would use these sentences? <br> Make sure that your responses sum up to one hundred percent.</p>",,234794,8,html-multi-slider-response,,120
24,Condition 1,0.0-9.0,,0,45,50,5,19152,I'll be here for a bit,I'll be here for some time,I'll be here for a while,something else,0,"<p><img src=""../proexpec/q/q_b_120.jpg"" class=""scaled-img"" /></p><p>How likely do you think it is that someone would use these sentences? <br> Make sure that your responses sum up to one hundred percent.</p>",,254207,9,html-multi-slider-response,,120
24,Condition 1,0.0-10.0,,20,25,40,15,31837,I'll be here for a bit,I'll be here for some time,I'll be here for a while,something else,0,"<p><img src=""../proexpec/q/q_b_30.jpg"" class=""scaled-img"" /></p><p>How likely do you think it is that someone would use these sentences? <br> Make sure that your responses sum up to one hundred percent.</p>",,286299,10,html-multi-slider-response,,30
24,Condition 1,0.0-11.0,,0,50,45,5,17244,I'll be here for a bit,I'll be here for some time,I'll be here for a while,something else,0,"<p><img src=""../proexpec/q/q_b_60.jpg"" class=""scaled-img"" /></p><p>How likely do you think it is that someone would use these sentences? <br> Make sure that your responses sum up to one hundred percent.</p>",,303808,11,html-multi-slider-response,,60
24,Condition 1,0.0-12.0,,0,50,45,5,17025,I'll be here for a bit,I'll be here for some time,I'll be here for a while,something else,0,"<p><img src=""../proexpec/q/q_b_60.jpg"" class=""scaled-img"" /></p><p>How likely do you think it is that someone would use these sentences? <br> Make sure that your responses sum up to one hundred percent.</p>",,321087,12,html-multi-slider-response,,60
24,Condition 1,0.0-13.0,,0,50,45,5,14573,I'll be here for a bit,I'll be here for some time,I'll be here for a while,something else,0,"<p><img src=""../proexpec/q/q_b_45.jpg"" class=""scaled-img"" /></p><p>How likely do you think it is that someone would use these sentences? <br> Make sure that your responses sum up to one hundred percent.</p>",,335912,13,html-multi-slider-response,,45
24,Condition 1,0.0-14.0,,50,10,10,30,24650,I'll be here for a bit,I'll be here for some time,I'll be here for a while,something else,0,"<p><img src=""../proexpec/q/q_b_20.jpg"" class=""scaled-img"" /></p><p>How likely do you think it is that someone would use these sentences? <br> Make sure that your responses sum up to one hundred percent.</p>",,360821,14,html-multi-slider-response,,20
24,Condition 1,0.0-15.0,,50,10,10,30,17261,I'll be here for a bit,I'll be here for some time,I'll be here for a while,something else,0,"<p><img src=""../proexpec/q/q_b_15.jpg"" class=""scaled-img"" /></p><p>How likely do you think it is that someone would use these sentences? <br> Make sure that your responses sum up to one hundred percent.</p>",,378349,15,html-multi-slider-response,,15
24,Condition 1,0.0-16.0,,60,5,5,30,12697,I'll be here for a bit,I'll be here for some time,I'll be here for a while,something else,0,"<p><img src=""../proexpec/q/q_b_10.jpg"" class=""scaled-img"" /></p><p>How likely do you think it is that someone would use these sentences? <br> Make sure that your responses sum up to one hundred percent.</p>",,391299,16,html-multi-slider-response,,10
24,Condition 1,0.0-17.0,,0,40,60,0,13747,I'll be here for a bit,I'll be here for some time,I'll be here for a while,something else,0,"<p><img src=""../proexpec/q/q_b_45.jpg"" class=""scaled-img"" /></p><p>How likely do you think it is that someone would use these sentences? <br> Make sure that your responses sum up to one hundred percent.</p>",,405299,17,html-multi-slider-response,,45
24,Condition 1,0.0-18.0,,0,60,40,0,8454,I'll be here for a bit,I'll be here for some time,I'll be here for a while,something else,0,"<p><img src=""../proexpec/q/q_b_90.jpg"" class=""scaled-img"" /></p><p>How likely do you think it is that someone would use these sentences? <br> Make sure that your responses sum up to one hundred percent.</p>",,414014,18,html-multi-slider-response,,90
24,Condition 1,0.0-19.0,,20,30,50,0,18061,I'll be here for a bit,I'll be here for some time,I'll be here for a while,something else,0,"<p><img src=""../proexpec/q/q_b_30.jpg"" class=""scaled-img"" /></p><p>How likely do you think it is that someone would use these sentences? <br> Make sure that your responses sum up to one hundred percent.</p>",,432337,19,html-multi-slider-response,,30
24,Condition 1,0.0-20.0,,40,0,0,60,9287,I'll be here for a bit,I'll be here for some time,I'll be here for a while,something else,0,"<p><img src=""../proexpec/q/q_b_5.jpg"" class=""scaled-img"" /></p><p>How likely do you think it is that someone would use these sentences? <br> Make sure that your responses sum up to one hundred percent.</p>",,441890,20,html-multi-slider-response,,5
24,Condition 1,0.0-21.0,,40,0,0,60,7665,I'll be here for a bit,I'll be here for some time,I'll be here for a while,something else,0,"<p><img src=""../proexpec/q/q_b_10.jpg"" class=""scaled-img"" /></p><p>How likely do you think it is that someone would use these sentences? <br> Make sure that your responses sum up to one hundred percent.</p>",,449819,21,html-multi-slider-response,,10
24,Condition 1,0.0-22.0,,0,35,60,5,13049,I'll be here for a bit,I'll be here for some time,I'll be here for a while,something else,0,"<p><img src=""../proexpec/q/q_b_90.jpg"" class=""scaled-img"" /></p><p>How likely do you think it is that someone would use these sentences? <br> Make sure that your responses sum up to one hundred percent.</p>",,463132,22,html-multi-slider-response,,90
29,Condition 1,0.0-5.0,,15,37,42,6,58656,I'll be here for a bit,I'll be here for some time,I'll be here for a while,something else,0,"<p><img src=""../proexpec/q/q_b_15.jpg"" class=""scaled-img"" /></p><p>How likely do you think it is that someone would use these sentences? <br> Make sure that your responses sum up to one hundred percent.</p>",,130660,5,html-multi-slider-response,,15
29,Condition 1,0.0-6.0,,3,59,38,0,66770,I'll be here for a bit,I'll be here for some time,I'll be here for a while,something else,0,"<p><img src=""../proexpec/q/q_b_120.jpg"" class=""scaled-img"" /></p><p>How likely do you think it is that someone would use these sentences? <br> Make sure that your responses sum up to one hundred percent.</p>",,197695,6,html-multi-slider-response,,120
29,Condition 1,0.0-7.0,,13,52,32,3,40752,I'll be here for a bit,I'll be here for some time,I'll be here for a while,something else,0,"<p><img src=""../proexpec/q/q_b_60.jpg"" class=""scaled-img"" /></p><p>How likely do you think it is that someone would use these sentences? <br> Make sure that your responses sum up to one hundred percent.</p>",,238705,7,html-multi-slider-response,,60
29,Condition 1,0.0-8.0,,54,6,6,34,50299,I'll be here for a bit,I'll be here for some time,I'll be here for a while,something else,0,"<p><img src=""../proexpec/q/q_b_10.jpg"" class=""scaled-img"" /></p><p>How likely do you think it is that someone would use these sentences? <br> Make sure that your responses sum up to one hundred percent.</p>",,289257,8,html-multi-slider-response,,10
29,Condition 1,0.0-9.0,,5,47,37,11,35448,I'll be here for a bit,I'll be here for some time,I'll be here for a while,something else,0,"<p><img src=""../proexpec/q/q_b_30.jpg"" class=""scaled-img"" /></p><p>How likely do you think it is that someone would use these sentences? <br> Make sure that your responses sum up to one hundred percent.</p>",,324969,9,html-multi-slider-response,,30
29,Condition 1,0.0-10.0,,0,64,36,0,25841,I'll be here for a bit,I'll be here for some time,I'll be here for a while,something else,0,"<p><img src=""../proexpec/q/q_b_60.jpg"" class=""scaled-img"" /></p><p>How likely do you think it is that someone would use these sentences? <br> Make sure that your responses sum up to one hundred percent.</p>",,351063,10,html-multi-slider-response,,60
29,Condition 1,0.0-11.0,,59,4,5,32,101561,I'll be here for a bit,I'll be here for some time,I'll be here for a while,something else,0,"<p><img src=""../proexpec/q/q_b_10.jpg"" class=""scaled-img"" /></p><p>How likely do you think it is that someone would use these sentences? <br> Make sure that your responses sum up to one hundred percent.</p>",,452881,11,html-multi-slider-response,,10
29,Condition 1,0.0-12.0,,34,20,40,6,40202,I'll be here for a bit,I'll be here for some time,I'll be here for a while,something else,0,"<p><img src=""../proexpec/q/q_b_30.jpg"" class=""scaled-img"" /></p><p>How likely do you think it is that someone would use these sentences? <br> Make sure that your responses sum up to one hundred percent.</p>",,493338,12,html-multi-slider-response,,30
29,Condition 1,0.0-13.0,,0,64,36,0,24737,I'll be here for a bit,I'll be here for some time,I'll be here for a while,something else,0,"<p><img src=""../proexpec/q/q_b_90.jpg"" class=""scaled-img"" /></p><p>How likely do you think it is that someone would use these sentences? <br> Make sure that your responses sum up to one hundred percent.</p>",,518327,13,html-multi-slider-response,,90
29,Condition 1,0.0-14.0,,2,58,40,0,37312,I'll be here for a bit,I'll be here for some time,I'll be here for a while,something else,0,"<p><img src=""../proexpec/q/q_b_45.jpg"" class=""scaled-img"" /></p><p>How likely do you think it is that someone would use these sentences? <br> Make sure that your responses sum up to one hundred percent.</p>",,555898,14,html-multi-slider-response,,45
29,Condition 1,0.0-15.0,,58,20,10,12,57445,I'll be here for a bit,I'll be here for some time,I'll be here for a while,something else,0,"<p><img src=""../proexpec/q/q_b_20.jpg"" class=""scaled-img"" /></p><p>How likely do you think it is that someone would use these sentences? <br> Make sure that your responses sum up to one hundred percent.</p>",,613601,15,html-multi-slider-response,,20
29,Condition 1,0.0-16.0,,0,56,44,0,14319,I'll be here for a bit,I'll be here for some time,I'll be here for a while,something else,0,"<p><img src=""../proexpec/q/q_b_45.jpg"" class=""scaled-img"" /></p><p>How likely do you think it is that someone would use these sentences? <br> Make sure that your responses sum up to one hundred percent.</p>",,628175,16,html-multi-slider-response,,45
29,Condition 1,0.0-17.0,,75,2,15,8,29069,I'll be here for a bit,I'll be here for some time,I'll be here for a while,something else,0,"<p><img src=""../proexpec/q/q_b_15.jpg"" class=""scaled-img"" /></p><p>How likely do you think it is that someone would use these sentences? <br> Make sure that your responses sum up to one hundred percent.</p>",,657510,17,html-multi-slider-response,,15
29,Condition 1,0.0-18.0,,42,0,0,57,34598,I'll be here for a bit,I'll be here for some time,I'll be here for a while,something else,0,"<p><img src=""../proexpec/q/q_b_5.jpg"" class=""scaled-img"" /></p><p>How likely do you think it is that someone would use these sentences? <br> Make sure that your responses sum up to one hundred percent.</p>",,692374,18,html-multi-slider-response,,5
29,Condition 1,0.0-19.0,,10,0,0,90,16299,I'll be here for a bit,I'll be here for some time,I'll be here for a while,something else,0,"<p><img src=""../proexpec/q/q_b_5.jpg"" class=""scaled-img"" /></p><p>How likely do you think it is that someone would use these sentences? <br> Make sure that your responses sum up to one hundred percent.</p>",,708926,19,html-multi-slider-response,,5
29,Condition 1,0.0-20.0,,29,21,46,4,72517,I'll be here for a bit,I'll be here for some time,I'll be here for a while,something else,0,"<p><img src=""../proexpec/q/q_b_20.jpg"" class=""scaled-img"" /></p><p>How likely do you think it is that someone would use these sentences? <br> Make sure that your responses sum up to one hundred percent.</p>",,781710,20,html-multi-slider-response,,20
29,Condition 1,0.0-21.0,,0,85,15,0,20679,I'll be here for a bit,I'll be here for some time,I'll be here for a while,something else,0,"<p><img src=""../proexpec/q/q_b_120.jpg"" class=""scaled-img"" /></p><p>How likely do you think it is that someone would use these sentences? <br> Make sure that your responses sum up to one hundred percent.</p>",,802648,21,html-multi-slider-response,,120
29,Condition 1,0.0-22.0,,0,80,20,0,15955,I'll be here for a bit,I'll be here for some time,I'll be here for a while,something else,0,"<p><img src=""../proexpec/q/q_b_90.jpg"" class=""scaled-img"" /></p><p>How likely do you think it is that someone would use these sentences? <br> Make sure that your responses sum up to one hundred percent.</p>",,818860,22,html-multi-slider-response,,90
16,Condition 1,0.0-5.0,,22,30,28,20,27704,I'll be here for a bit,I'll be here for some time,I'll be here for a while,something else,0,"<p><img src=""../proexpec/q/q_b_10.jpg"" class=""scaled-img"" /></p><p>How likely do you think it is that someone would use these sentences? <br> Make sure that your responses sum up to one hundred percent.</p>",,85705,5,html-multi-slider-response,,10
16,Condition 1,0.0-6.0,,35,24,27,14,11938,I'll be here for a bit,I'll be here for some time,I'll be here for a while,something else,0,"<p><img src=""../proexpec/q/q_b_15.jpg"" class=""scaled-img"" /></p><p>How likely do you think it is that someone would use these sentences? <br> Make sure that your responses sum up to one hundred percent.</p>",,97905,6,html-multi-slider-response,,15
16,Condition 1,0.0-7.0,,9,35,56,0,12471,I'll be here for a bit,I'll be here for some time,I'll be here for a while,something else,0,"<p><img src=""../proexpec/q/q_b_90.jpg"" class=""scaled-img"" /></p><p>How likely do you think it is that someone would use these sentences? <br> Make sure that your responses sum up to one hundred percent.</p>",,110639,7,html-multi-slider-response,,90
16,Condition 1,0.0-8.0,,22,25,12,41,8821,I'll be here for a bit,I'll be here for some time,I'll be here for a while,something else,0,"<p><img src=""../proexpec/q/q_b_45.jpg"" class=""scaled-img"" /></p><p>How likely do you think it is that someone would use these sentences? <br> Make sure that your responses sum up to one hundred percent.</p>",,119713,8,html-multi-slider-response,,45
16,Condition 1,0.0-9.0,,14,22,25,39,15880,I'll be here for a bit,I'll be here for some time,I'll be here for a while,something else,0,"<p><img src=""../proexpec/q/q_b_30.jpg"" class=""scaled-img"" /></p><p>How likely do you think it is that someone would use these sentences? <br> Make sure that your responses sum up to one hundred percent.</p>",,135847,9,html-multi-slider-response,,30
16,Condition 1,0.0-10.0,,61,11,0,28,9534,I'll be here for a bit,I'll be here for some time,I'll be here for a while,something else,0,"<p><img src=""../proexpec/q/q_b_10.jpg"" class=""scaled-img"" /></p><p>How likely do you think it is that someone would use these sentences? <br> Make sure that your responses sum up to one hundred percent.</p>",,145634,10,html-multi-slider-response,,10
16,Condition 1,0.0-11.0,,87,0,0,13,8700,I'll be here for a bit,I'll be here for some time,I'll be here for a while,something else,0,"<p><img src=""../proexpec/q/q_b_5.jpg"" class=""scaled-img"" /></p><p>How likely do you think it is that someone would use these sentences? <br> Make sure that your responses sum up to one hundred percent.</p>",,154587,11,html-multi-slider-response,,5
16,Condition 1,0.0-12.0,,41,29,12,18,12317,I'll be here for a bit,I'll be here for some time,I'll be here for a while,something else,0,"<p><img src=""../proexpec/q/q_b_20.jpg"" class=""scaled-img"" /></p><p>How likely do you think it is that someone would use these sentences? <br> Make sure that your responses sum up to one hundred percent.</p>",,167166,12,html-multi-slider-response,,20
16,Condition 1,0.0-13.0,,21,28,32,19,11368,I'll be here for a bit,I'll be here for some time,I'll be here for a while,something else,0,"<p><img src=""../proexpec/q/q_b_20.jpg"" class=""scaled-img"" /></p><p>How likely do you think it is that someone would use these sentences? <br> Make sure that your responses sum up to one hundred percent.</p>",,178800,13,html-multi-slider-response,,20
16,Condition 1,0.0-14.0,,68,0,0,32,10013,I'll be here for a bit,I'll be here for some time,I'll be here for a while,something else,0,"<p><img src=""../proexpec/q/q_b_5.jpg"" class=""scaled-img"" /></p><p>How likely do you think it is that someone would use these sentences? <br> Make sure that your responses sum up to one hundred percent.</p>",,189079,14,html-multi-slider-response,,5
16,Condition 1,0.0-15.0,,0,28,72,0,6992,I'll be here for a bit,I'll be here for some time,I'll be here for a while,something else,0,"<p><img src=""../proexpec/q/q_b_60.jpg"" class=""scaled-img"" /></p><p>How likely do you think it is that someone would use these sentences? <br> Make sure that your responses sum up to one hundred percent.</p>",,196325,15,html-multi-slider-response,,60
16,Condition 1,0.0-16.0,,0,0,100,0,3641,I'll be here for a bit,I'll be here for some time,I'll be here for a while,something else,0,"<p><img src=""../proexpec/q/q_b_120.jpg"" class=""scaled-img"" /></p><p>How likely do you think it is that someone would use these sentences? <br> Make sure that your responses sum up to one hundred percent.</p>",,200223,16,html-multi-slider-response,,120
16,Condition 1,0.0-17.0,,0,0,100,0,5355,I'll be here for a bit,I'll be here for some time,I'll be here for a while,something else,0,"<p><img src=""../proexpec/q/q_b_60.jpg"" class=""scaled-img"" /></p><p>How likely do you think it is that someone would use these sentences? <br> Make sure that your responses sum up to one hundred percent.</p>",,205837,17,html-multi-slider-response,,60
16,Condition 1,0.0-18.0,,0,28,72,0,5147,I'll be here for a bit,I'll be here for some time,I'll be here for a while,something else,0,"<p><img src=""../proexpec/q/q_b_90.jpg"" class=""scaled-img"" /></p><p>How likely do you think it is that someone would use these sentences? <br> Make sure that your responses sum up to one hundred percent.</p>",,211243,18,html-multi-slider-response,,90
16,Condition 1,0.0-19.0,,43,57,0,0,6101,I'll be here for a bit,I'll be here for some time,I'll be here for a while,something else,0,"<p><img src=""../proexpec/q/q_b_30.jpg"" class=""scaled-img"" /></p><p>How likely do you think it is that someone would use these sentences? <br> Make sure that your responses sum up to one hundred percent.</p>",,217600,19,html-multi-slider-response,,30
16,Condition 1,0.0-20.0,,0,0,100,0,3843,I'll be here for a bit,I'll be here for some time,I'll be here for a while,something else,0,"<p><img src=""../proexpec/q/q_b_120.jpg"" class=""scaled-img"" /></p><p>How likely do you think it is that someone would use these sentences? <br> Make sure that your responses sum up to one hundred percent.</p>",,221708,20,html-multi-slider-response,,120
16,Condition 1,0.0-21.0,,0,100,0,0,3069,I'll be here for a bit,I'll be here for some time,I'll be here for a while,something else,0,"<p><img src=""../proexpec/q/q_b_15.jpg"" class=""scaled-img"" /></p><p>How likely do you think it is that someone would use these sentences? <br> Make sure that your responses sum up to one hundred percent.</p>",,225035,21,html-multi-slider-response,,15
16,Condition 1,0.0-22.0,,0,27,73,0,5419,I'll be here for a bit,I'll be here for some time,I'll be here for a while,something else,0,"<p><img src=""../proexpec/q/q_b_45.jpg"" class=""scaled-img"" /></p><p>How likely do you think it is that someone would use these sentences? <br> Make sure that your responses sum up to one hundred percent.</p>",,230719,22,html-multi-slider-response,,45
39,Condition 1,0.0-5.0,,0,20,80,0,42861,I'll be here for a bit,I'll be here for some time,I'll be here for a while,something else,0,"<p><img src=""../proexpec/q/q_b_10.jpg"" class=""scaled-img"" /></p><p>How likely do you think it is that someone would use these sentences? <br> Make sure that your responses sum up to one hundred percent.</p>",,132218,5,html-multi-slider-response,,10
39,Condition 1,0.0-6.0,,0,0,100,0,16280,I'll be here for a bit,I'll be here for some time,I'll be here for a while,something else,0,"<p><img src=""../proexpec/q/q_b_60.jpg"" class=""scaled-img"" /></p><p>How likely do you think it is that someone would use these sentences? <br> Make sure that your responses sum up to one hundred percent.</p>",,148755,6,html-multi-slider-response,,60
39,Condition 1,0.0-7.0,,0,0,100,0,7791,I'll be here for a bit,I'll be here for some time,I'll be here for a while,something else,0,"<p><img src=""../proexpec/q/q_b_90.jpg"" class=""scaled-img"" /></p><p>How likely do you think it is that someone would use these sentences? <br> Make sure that your responses sum up to one hundred percent.</p>",,156810,7,html-multi-slider-response,,90
39,Condition 1,0.0-8.0,,0,0,91,9,97383,I'll be here for a bit,I'll be here for some time,I'll be here for a while,something else,0,"<p><img src=""../proexpec/q/q_b_120.jpg"" class=""scaled-img"" /></p><p>How likely do you think it is that someone would use these sentences? <br> Make sure that your responses sum up to one hundred percent.</p>",,254458,8,html-multi-slider-response,,120
39,Condition 1,0.0-9.0,,0,100,0,0,14590,I'll be here for a bit,I'll be here for some time,I'll be here for a while,something else,0,"<p><img src=""../proexpec/q/q_b_45.jpg"" class=""scaled-img"" /></p><p>How likely do you think it is that someone would use these sentences? <br> Make sure that your responses sum up to one hundred percent.</p>",,269304,9,html-multi-slider-response,,45
39,Condition 1,0.0-10.0,,0,0,100,0,9481,I'll be here for a bit,I'll be here for some time,I'll be here for a while,something else,0,"<p><img src=""../proexpec/q/q_b_90.jpg"" class=""scaled-img"" /></p><p>How likely do you think it is that someone would use these sentences? <br> Make sure that your responses sum up to one hundred percent.</p>",,279042,10,html-multi-slider-response,,90
39,Condition 1,0.0-11.0,,100,0,0,0,6438,I'll be here for a bit,I'll be here for some time,I'll be here for a while,something else,0,"<p><img src=""../proexpec/q/q_b_15.jpg"" class=""scaled-img"" /></p><p>How likely do you think it is that someone would use these sentences? <br> Make sure that your responses sum up to one hundred percent.</p>",,285741,11,html-multi-slider-response,,15
39,Condition 1,0.0-12.0,,100,0,0,0,70364,I'll be here for a bit,I'll be here for some time,I'll be here for a while,something else,0,"<p><img src=""../proexpec/q/q_b_10.jpg"" class=""scaled-img"" /></p><p>How likely do you think it is that someone would use these sentences? <br> Make sure that your responses sum up to one hundred percent.</p>",,356361,12,html-multi-slider-response,,10
39,Condition 1,0.0-13.0,,0,0,70,30,13747,I'll be here for a bit,I'll be here for some time,I'll be here for a while,something else,0,"<p><img src=""../proexpec/q/q_b_120.jpg"" class=""scaled-img"" /></p><p>How likely do you think it is that someone would use these sentences? <br> Make sure that your responses sum up to one hundred percent.</p>",,370365,13,html-multi-slider-response,,120
39,Condition 1,0.0-14.0,,100,0,0,0,8272,I'll be here for a bit,I'll be here for some time,I'll be here for a while,something else,0,"<p><img src=""../proexpec/q/q_b_5.jpg"" class=""scaled-img"" /></p><p>How likely do you think it is that someone would use these sentences? <br> Make sure that your responses sum up to one hundred percent.</p>",,378903,14,html-multi-slider-response,,5
39,Condition 1,0.0-15.0,,0,100,0,0,5289,I'll be here for a bit,I'll be here for some time,I'll be here for a while,something else,0,"<p><img src=""../proexpec/q/q_b_20.jpg"" class=""scaled-img"" /></p><p>How likely do you think it is that someone would use these sentences? <br> Make sure that your responses sum up to one hundred percent.</p>",,384458,15,html-multi-slider-response,,20
39,Condition 1,0.0-16.0,,100,0,0,0,6300,I'll be here for a bit,I'll be here for some time,I'll be here for a while,something else,0,"<p><img src=""../proexpec/q/q_b_5.jpg"" class=""scaled-img"" /></p><p>How likely do you think it is that someone would use these sentences? <br> Make sure that your responses sum up to one hundred percent.</p>",,391025,16,html-multi-slider-response,,5
39,Condition 1,0.0-17.0,,100,0,0,0,9762,I'll be here for a bit,I'll be here for some time,I'll be here for a while,something else,0,"<p><img src=""../proexpec/q/q_b_15.jpg"" class=""scaled-img"" /></p><p>How likely do you think it is that someone would use these sentences? <br> Make sure that your responses sum up to one hundred percent.</p>",,401046,17,html-multi-slider-response,,15
39,Condition 1,0.0-18.0,,0,100,0,0,21079,I'll be here for a bit,I'll be here for some time,I'll be here for a while,something else,0,"<p><img src=""../proexpec/q/q_b_30.jpg"" class=""scaled-img"" /></p><p>How likely do you think it is that someone would use these sentences? <br> Make sure that your responses sum up to one hundred percent.</p>",,422383,18,html-multi-slider-response,,30
39,Condition 1,0.0-19.0,,0,100,0,0,7879,I'll be here for a bit,I'll be here for some time,I'll be here for a while,something else,0,"<p><img src=""../proexpec/q/q_b_20.jpg"" class=""scaled-img"" /></p><p>How likely do you think it is that someone would use these sentences? <br> Make sure that your responses sum up to one hundred percent.</p>",,430521,19,html-multi-slider-response,,20
39,Condition 1,0.0-20.0,,0,90,10,0,49337,I'll be here for a bit,I'll be here for some time,I'll be here for a while,something else,0,"<p><img src=""../proexpec/q/q_b_30.jpg"" class=""scaled-img"" /></p><p>How likely do you think it is that someone would use these sentences? <br> Make sure that your responses sum up to one hundred percent.</p>",,480125,20,html-multi-slider-response,,30
39,Condition 1,0.0-21.0,,0,0,100,0,67001,I'll be here for a bit,I'll be here for some time,I'll be here for a while,something else,0,"<p><img src=""../proexpec/q/q_b_45.jpg"" class=""scaled-img"" /></p><p>How likely do you think it is that someone would use these sentences? <br> Make sure that your responses sum up to one hundred percent.</p>",,547391,21,html-multi-slider-response,,45
39,Condition 1,0.0-22.0,,0,0,100,0,6434,I'll be here for a bit,I'll be here for some time,I'll be here for a while,something else,0,"<p><img src=""../proexpec/q/q_b_60.jpg"" class=""scaled-img"" /></p><p>How likely do you think it is that someone would use these sentences? <br> Make sure that your responses sum up to one hundred percent.</p>",,554091,22,html-multi-slider-response,,60
56,Condition 1,0.0-5.0,,30,20,40,10,46052,I'll be here for a bit,I'll be here for some time,I'll be here for a while,something else,0,"<p><img src=""../proexpec/q/q_b_15.jpg"" class=""scaled-img"" /></p><p>How likely do you think it is that someone would use these sentences? <br> Make sure that your responses sum up to one hundred percent.</p>",,121751,5,html-multi-slider-response,,15
56,Condition 1,0.0-6.0,,20,20,5,55,39929,I'll be here for a bit,I'll be here for some time,I'll be here for a while,something else,0,"<p><img src=""../proexpec/q/q_b_5.jpg"" class=""scaled-img"" /></p><p>How likely do you think it is that someone would use these sentences? <br> Make sure that your responses sum up to one hundred percent.</p>",,161933,6,html-multi-slider-response,,5
56,Condition 1,0.0-7.0,,16,40,40,4,49311,I'll be here for a bit,I'll be here for some time,I'll be here for a while,something else,0,"<p><img src=""../proexpec/q/q_b_30.jpg"" class=""scaled-img"" /></p><p>How likely do you think it is that someone would use these sentences? <br> Make sure that your responses sum up to one hundred percent.</p>",,211510,7,html-multi-slider-response,,30
56,Condition 1,0.0-8.0,,20,35,35,10,73066,I'll be here for a bit,I'll be here for some time,I'll be here for a while,something else,0,"<p><img src=""../proexpec/q/q_b_30.jpg"" class=""scaled-img"" /></p><p>How likely do you think it is that someone would use these sentences? <br> Make sure that your responses sum up to one hundred percent.</p>",,284835,8,html-multi-slider-response,,30
56,Condition 1,0.0-9.0,,10,10,10,70,41486,I'll be here for a bit,I'll be here for some time,I'll be here for a while,something else,0,"<p><img src=""../proexpec/q/q_b_5.jpg"" class=""scaled-img"" /></p><p>How likely do you think it is that someone would use these sentences? <br> Make sure that your responses sum up to one hundred percent.</p>",,326571,9,html-multi-slider-response,,5
56,Condition 1,0.0-10.0,,30,10,10,50,68969,I'll be here for a bit,I'll be here for some time,I'll be here for a while,something else,0,"<p><img src=""../proexpec/q/q_b_10.jpg"" class=""scaled-img"" /></p><p>How likely do you think it is that someone would use these sentences? <br> Make sure that your responses sum up to one hundred percent.</p>",,395801,10,html-multi-slider-response,,10
56,Condition 1,0.0-11.0,,25,35,30,10,51043,I'll be here for a bit,I'll be here for some time,I'll be here for a while,something else,0,"<p><img src=""../proexpec/q/q_b_45.jpg"" class=""scaled-img"" /></p><p>How likely do you think it is that someone would use these sentences? <br> Make sure that your responses sum up to one hundred percent.</p>",,447102,11,html-multi-slider-response,,45
56,Condition 1,0.0-12.0,,20,35,35,10,38611,I'll be here for a bit,I'll be here for some time,I'll be here for a while,something else,0,"<p><img src=""../proexpec/q/q_b_60.jpg"" class=""scaled-img"" /></p><p>How likely do you think it is that someone would use these sentences? <br> Make sure that your responses sum up to one hundred percent.</p>",,485972,12,html-multi-slider-response,,60
56,Condition 1,0.0-13.0,,5,36,34,25,32314,I'll be here for a bit,I'll be here for some time,I'll be here for a while,something else,0,"<p><img src=""../proexpec/q/q_b_90.jpg"" class=""scaled-img"" /></p><p>How likely do you think it is that someone would use these sentences? <br> Make sure that your responses sum up to one hundred percent.</p>",,518541,13,html-multi-slider-response,,90
56,Condition 1,0.0-14.0,,15,30,30,25,35559,I'll be here for a bit,I'll be here for some time,I'll be here for a while,something else,0,"<p><img src=""../proexpec/q/q_b_20.jpg"" class=""scaled-img"" /></p><p>How likely do you think it is that someone would use these sentences? <br> Make sure that your responses sum up to one hundred percent.</p>",,554357,14,html-multi-slider-response,,20
56,Condition 1,0.0-15.0,,25,35,35,5,28028,I'll be here for a bit,I'll be here for some time,I'll be here for a while,something else,0,"<p><img src=""../proexpec/q/q_b_60.jpg"" class=""scaled-img"" /></p><p>How likely do you think it is that someone would use these sentences? <br> Make sure that your responses sum up to one hundred percent.</p>",,582646,15,html-multi-slider-response,,60
56,Condition 1,0.0-16.0,,30,30,30,10,26208,I'll be here for a bit,I'll be here for some time,I'll be here for a while,something else,0,"<p><img src=""../proexpec/q/q_b_120.jpg"" class=""scaled-img"" /></p><p>How likely do you think it is that someone would use these sentences? <br> Make sure that your responses sum up to one hundred percent.</p>",,609118,16,html-multi-slider-response,,120
56,Condition 1,0.0-17.0,,15,25,25,35,63670,I'll be here for a bit,I'll be here for some time,I'll be here for a while,something else,0,"<p><img src=""../proexpec/q/q_b_20.jpg"" class=""scaled-img"" /></p><p>How likely do you think it is that someone would use these sentences? <br> Make sure that your responses sum up to one hundred percent.</p>",,673045,17,html-multi-slider-response,,20
56,Condition 1,0.0-18.0,,40,20,20,20,27082,I'll be here for a bit,I'll be here for some time,I'll be here for a while,something else,0,"<p><img src=""../proexpec/q/q_b_15.jpg"" class=""scaled-img"" /></p><p>How likely do you think it is that someone would use these sentences? <br> Make sure that your responses sum up to one hundred percent.</p>",,700394,18,html-multi-slider-response,,15
56,Condition 1,0.0-19.0,,20,30,40,10,28050,I'll be here for a bit,I'll be here for some time,I'll be here for a while,something else,0,"<p><img src=""../proexpec/q/q_b_90.jpg"" class=""scaled-img"" /></p><p>How likely do you think it is that someone would use these sentences? <br> Make sure that your responses sum up to one hundred percent.</p>",,728703,19,html-multi-slider-response,,90
56,Condition 1,0.0-20.0,,30,30,30,10,24771,I'll be here for a bit,I'll be here for some time,I'll be here for a while,something else,0,"<p><img src=""../proexpec/q/q_b_120.jpg"" class=""scaled-img"" /></p><p>How likely do you think it is that someone would use these sentences? <br> Make sure that your responses sum up to one hundred percent.</p>",,753737,20,html-multi-slider-response,,120
56,Condition 1,0.0-21.0,,40,20,20,20,41887,I'll be here for a bit,I'll be here for some time,I'll be here for a while,something else,0,"<p><img src=""../proexpec/q/q_b_10.jpg"" class=""scaled-img"" /></p><p>How likely do you think it is that someone would use these sentences? <br> Make sure that your responses sum up to one hundred percent.</p>",,795879,21,html-multi-slider-response,,10
56,Condition 1,0.0-22.0,,25,35,35,5,30575,I'll be here for a bit,I'll be here for some time,I'll be here for a while,something else,0,"<p><img src=""../proexpec/q/q_b_45.jpg"" class=""scaled-img"" /></p><p>How likely do you think it is that someone would use these sentences? <br> Make sure that your responses sum up to one hundred percent.</p>",,826722,22,html-multi-slider-response,,45
19,Condition 1,0.0-5.0,,0,46,54,0,23899,I'll be here for a bit,I'll be here for some time,I'll be here for a while,something else,0,"<p><img src=""../proexpec/q/q_b_90.jpg"" class=""scaled-img"" /></p><p>How likely do you think it is that someone would use these sentences? <br> Make sure that your responses sum up to one hundred percent.</p>",,56438,5,html-multi-slider-response,,90
19,Condition 1,0.0-6.0,,11,10,79,0,10011,I'll be here for a bit,I'll be here for some time,I'll be here for a while,something else,0,"<p><img src=""../proexpec/q/q_b_30.jpg"" class=""scaled-img"" /></p><p>How likely do you think it is that someone would use these sentences? <br> Make sure that your responses sum up to one hundred percent.</p>",,66710,6,html-multi-slider-response,,30
19,Condition 1,0.0-7.0,,0,30,59,11,9624,I'll be here for a bit,I'll be here for some time,I'll be here for a while,something else,0,"<p><img src=""../proexpec/q/q_b_45.jpg"" class=""scaled-img"" /></p><p>How likely do you think it is that someone would use these sentences? <br> Make sure that your responses sum up to one hundred percent.</p>",,76590,7,html-multi-slider-response,,45
19,Condition 1,0.0-8.0,,74,0,0,26,9744,I'll be here for a bit,I'll be here for some time,I'll be here for a while,something else,0,"<p><img src=""../proexpec/q/q_b_30.jpg"" class=""scaled-img"" /></p><p>How likely do you think it is that someone would use these sentences? <br> Make sure that your responses sum up to one hundred percent.</p>",,86598,8,html-multi-slider-response,,30
19,Condition 1,0.0-9.0,,0,0,0,100,4617,I'll be here for a bit,I'll be here for some time,I'll be here for a while,something else,0,"<p><img src=""../proexpec/q/q_b_10.jpg"" class=""scaled-img"" /></p><p>How likely do you think it is that someone would use these sentences? <br> Make sure that your responses sum up to one hundred percent.</p>",,91478,9,html-multi-slider-response,,10
19,Condition 1,0.0-10.0,,0,0,0,100,3976,I'll be here for a bit,I'll be here for some time,I'll be here for a while,something else,0,"<p><img src=""../proexpec/q/q_b_5.jpg"" class=""scaled-img"" /></p><p>How likely do you think it is that someone would use these sentences? <br> Make sure that your responses sum up to one hundred percent.</p>",,95712,10,html-multi-slider-response,,5
19,Condition 1,0.0-11.0,,87,0,13,0,7246,I'll be here for a bit,I'll be here for some time,I'll be here for a while,something else,0,"<p><img src=""../proexpec/q/q_b_15.jpg"" class=""scaled-img"" /></p><p>How likely do you think it is that someone would use these sentences? <br> Make sure that your responses sum up to one hundred percent.</p>",,103215,11,html-multi-slider-response,,15
19,Condition 1,0.0-12.0,,0,78,22,0,4926,I'll be here for a bit,I'll be here for some time,I'll be here for a while,something else,0,"<p><img src=""../proexpec/q/q_b_90.jpg"" class=""scaled-img"" /></p><p>How likely do you think it is that someone would use these sentences? <br> Make sure that your responses sum up to one hundred percent.</p>",,108402,12,html-multi-slider-response,,90
19,Condition 1,0.0-13.0,,32,0,17,51,7772,I'll be here for a bit,I'll be here for some time,I'll be here for a while,something else,0,"<p><img src=""../proexpec/q/q_b_20.jpg"" class=""scaled-img"" /></p><p>How likely do you think it is that someone would use these sentences? <br> Make sure that your responses sum up to one hundred percent.</p>",,116429,13,html-multi-slider-response,,20
19,Condition 1,0.0-14.0,,35,14,0,51,6583,I'll be here for a bit,I'll be here for some time,I'll be here for a while,something else,0,"<p><img src=""../proexpec/q/q_b_20.jpg"" class=""scaled-img"" /></p><p>How likely do you think it is that someone would use these sentences? <br> Make sure that your responses sum up to one hundred percent.</p>",,123269,14,html-multi-slider-response,,20
19,Condition 1,0.0-15.0,,79,0,0,21,6181,I'll be here for a bit,I'll be here for some time,I'll be here for a while,something else,0,"<p><img src=""../proexpec/q/q_b_15.jpg"" class=""scaled-img"" /></p><p>How likely do you think it is that someone would use these sentences? <br> Make sure that your responses sum up to one hundred percent.</p>",,129715,15,html-multi-slider-response,,15
19,Condition 1,0.0-16.0,,26,40,34,0,5028,I'll be here for a bit,I'll be here for some time,I'll be here for a while,something else,0,"<p><img src=""../proexpec/q/q_b_45.jpg"" class=""scaled-img"" /></p><p>How likely do you think it is that someone would use these sentences? <br> Make sure that your responses sum up to one hundred percent.</p>",,135005,16,html-multi-slider-response,,45
19,Condition 1,0.0-17.0,,0,0,0,100,2781,I'll be here for a bit,I'll be here for some time,I'll be here for a while,something else,0,"<p><img src=""../proexpec/q/q_b_5.jpg"" class=""scaled-img"" /></p><p>How likely do you think it is that someone would use these sentences? <br> Make sure that your responses sum up to one hundred percent.</p>",,138047,17,html-multi-slider-response,,5
19,Condition 1,0.0-18.0,,0,79,21,0,9548,I'll be here for a bit,I'll be here for some time,I'll be here for a while,something else,0,"<p><img src=""../proexpec/q/q_b_60.jpg"" class=""scaled-img"" /></p><p>How likely do you think it is that someone would use these sentences? <br> Make sure that your responses sum up to one hundred percent.</p>",,147859,18,html-multi-slider-response,,60
19,Condition 1,0.0-19.0,,0,32,68,0,5612,I'll be here for a bit,I'll be here for some time,I'll be here for a while,something else,0,"<p><img src=""../proexpec/q/q_b_60.jpg"" class=""scaled-img"" /></p><p>How likely do you think it is that someone would use these sentences? <br> Make sure that your responses sum up to one hundred percent.</p>",,153736,19,html-multi-slider-response,,60
19,Condition 1,0.0-20.0,,0,0,100,0,4593,I'll be here for a bit,I'll be here for some time,I'll be here for a while,something else,0,"<p><img src=""../proexpec/q/q_b_120.jpg"" class=""scaled-img"" /></p><p>How likely do you think it is that someone would use these sentences? <br> Make sure that your responses sum up to one hundred percent.</p>",,158595,20,html-multi-slider-response,,120
19,Condition 1,0.0-21.0,,14,0,0,86,4418,I'll be here for a bit,I'll be here for some time,I'll be here for a while,something else,0,"<p><img src=""../proexpec/q/q_b_10.jpg"" class=""scaled-img"" /></p><p>How likely do you think it is that someone would use these sentences? <br> Make sure that your responses sum up to one hundred percent.</p>",,163272,21,html-multi-slider-response,,10
19,Condition 1,0.0-22.0,,0,0,100,0,13366,I'll be here for a bit,I'll be here for some time,I'll be here for a while,something else,0,"<p><img src=""../proexpec/q/q_b_120.jpg"" class=""scaled-img"" /></p><p>How likely do you think it is that someone would use these sentences? <br> Make sure that your responses sum up to one hundred percent.</p>",,176900,22,html-multi-slider-response,,120
33,Condition 1,0.0-5.0,,5,5,5,85,57559,I'll be here for a bit,I'll be here for some time,I'll be here for a while,something else,0,"<p><img src=""../proexpec/q/q_b_45.jpg"" class=""scaled-img"" /></p><p>How likely do you think it is that someone would use these sentences? <br> Make sure that your responses sum up to one hundred percent.</p>",,120129,5,html-multi-slider-response,,45
33,Condition 1,0.0-6.0,,5,5,5,85,33049,I'll be here for a bit,I'll be here for some time,I'll be here for a while,something else,0,"<p><img src=""../proexpec/q/q_b_90.jpg"" class=""scaled-img"" /></p><p>How likely do you think it is that someone would use these sentences? <br> Make sure that your responses sum up to one hundred percent.</p>",,153432,6,html-multi-slider-response,,90
33,Condition 1,0.0-7.0,,5,5,5,85,42329,I'll be here for a bit,I'll be here for some time,I'll be here for a while,something else,0,"<p><img src=""../proexpec/q/q_b_30.jpg"" class=""scaled-img"" /></p><p>How likely do you think it is that someone would use these sentences? <br> Make sure that your responses sum up to one hundred percent.</p>",,196016,7,html-multi-slider-response,,30
33,Condition 1,0.0-8.0,,5,5,5,85,24697,I'll be here for a bit,I'll be here for some time,I'll be here for a while,something else,0,"<p><img src=""../proexpec/q/q_b_10.jpg"" class=""scaled-img"" /></p><p>How likely do you think it is that someone would use these sentences? <br> Make sure that your responses sum up to one hundred percent.</p>",,220969,8,html-multi-slider-response,,10
33,Condition 1,0.0-9.0,,5,5,5,85,19192,I'll be here for a bit,I'll be here for some time,I'll be here for a while,something else,0,"<p><img src=""../proexpec/q/q_b_60.jpg"" class=""scaled-img"" /></p><p>How likely do you think it is that someone would use these sentences? <br> Make sure that your responses sum up to one hundred percent.</p>",,240417,9,html-multi-slider-response,,60
33,Condition 1,0.0-10.0,,5,5,5,85,49226,I'll be here for a bit,I'll be here for some time,I'll be here for a while,something else,0,"<p><img src=""../proexpec/q/q_b_120.jpg"" class=""scaled-img"" /></p><p>How likely do you think it is that someone would use these sentences? <br> Make sure that your responses sum up to one hundred percent.</p>",,289897,10,html-multi-slider-response,,120
33,Condition 1,0.0-11.0,,5,5,5,85,23392,I'll be here for a bit,I'll be here for some time,I'll be here for a while,something else,0,"<p><img src=""../proexpec/q/q_b_60.jpg"" class=""scaled-img"" /></p><p>How likely do you think it is that someone would use these sentences? <br> Make sure that your responses sum up to one hundred percent.</p>",,313545,11,html-multi-slider-response,,60
33,Condition 1,0.0-12.0,,5,5,5,85,22040,I'll be here for a bit,I'll be here for some time,I'll be here for a while,something else,0,"<p><img src=""../proexpec/q/q_b_30.jpg"" class=""scaled-img"" /></p><p>How likely do you think it is that someone would use these sentences? <br> Make sure that your responses sum up to one hundred percent.</p>",,335841,12,html-multi-slider-response,,30
33,Condition 1,0.0-13.0,,0,0,0,100,17313,I'll be here for a bit,I'll be here for some time,I'll be here for a while,something else,0,"<p><img src=""../proexpec/q/q_b_5.jpg"" class=""scaled-img"" /></p><p>How likely do you think it is that someone would use these sentences? <br> Make sure that your responses sum up to one hundred percent.</p>",,353408,13,html-multi-slider-response,,5
33,Condition 1,0.0-14.0,,5,0,5,90,31505,I'll be here for a bit,I'll be here for some time,I'll be here for a while,something else,0,"<p><img src=""../proexpec/q/q_b_15.jpg"" class=""scaled-img"" /></p><p>How likely do you think it is that someone would use these sentences? <br> Make sure that your responses sum up to one hundred percent.</p>",,385169,14,html-multi-slider-response,,15
33,Condition 1,0.0-15.0,,0,0,0,100,5321,I'll be here for a bit,I'll be here for some time,I'll be here for a while,something else,0,"<p><img src=""../proexpec/q/q_b_5.jpg"" class=""scaled-img"" /></p><p>How likely do you think it is that someone would use these sentences? <br> Make sure that your responses sum up to one hundred percent.</p>",,390744,15,html-multi-slider-response,,5
33,Condition 1,0.0-16.0,,0,0,0,100,8210,I'll be here for a bit,I'll be here for some time,I'll be here for a while,something else,0,"<p><img src=""../proexpec/q/q_b_10.jpg"" class=""scaled-img"" /></p><p>How likely do you think it is that someone would use these sentences? <br> Make sure that your responses sum up to one hundred percent.</p>",,399209,16,html-multi-slider-response,,10
33,Condition 1,0.0-17.0,,5,0,5,90,30649,I'll be here for a bit,I'll be here for some time,I'll be here for a while,something else,0,"<p><img src=""../proexpec/q/q_b_20.jpg"" class=""scaled-img"" /></p><p>How likely do you think it is that someone would use these sentences? <br> Make sure that your responses sum up to one hundred percent.</p>",,430113,17,html-multi-slider-response,,20
33,Condition 1,0.0-18.0,,0,5,5,90,19473,I'll be here for a bit,I'll be here for some time,I'll be here for a while,something else,0,"<p><img src=""../proexpec/q/q_b_45.jpg"" class=""scaled-img"" /></p><p>How likely do you think it is that someone would use these sentences? <br> Make sure that your responses sum up to one hundred percent.</p>",,449840,18,html-multi-slider-response,,45
33,Condition 1,0.0-19.0,,0,5,0,95,15954,I'll be here for a bit,I'll be here for some time,I'll be here for a while,something else,0,"<p><img src=""../proexpec/q/q_b_120.jpg"" class=""scaled-img"" /></p><p>How likely do you think it is that someone would use these sentences? <br> Make sure that your responses sum up to one hundred percent.</p>",,466049,19,html-multi-slider-response,,120
33,Condition 1,0.0-20.0,,5,0,0,95,15705,I'll be here for a bit,I'll be here for some time,I'll be here for a while,something else,0,"<p><img src=""../proexpec/q/q_b_15.jpg"" class=""scaled-img"" /></p><p>How likely do you think it is that someone would use these sentences? <br> Make sure that your responses sum up to one hundred percent.</p>",,482009,20,html-multi-slider-response,,15
33,Condition 1,0.0-21.0,,0,10,0,90,13184,I'll be here for a bit,I'll be here for some time,I'll be here for a while,something else,0,"<p><img src=""../proexpec/q/q_b_90.jpg"" class=""scaled-img"" /></p><p>How likely do you think it is that someone would use these sentences? <br> Make sure that your responses sum up to one hundred percent.</p>",,495447,21,html-multi-slider-response,,90
33,Condition 1,0.0-22.0,,5,5,5,85,16876,I'll be here for a bit,I'll be here for some time,I'll be here for a while,something else,0,"<p><img src=""../proexpec/q/q_b_20.jpg"" class=""scaled-img"" /></p><p>How likely do you think it is that someone would use these sentences? <br> Make sure that your responses sum up to one hundred percent.</p>",,512576,22,html-multi-slider-response,,20
35,Condition 1,0.0-5.0,,90,0,10,0,32515,I'll be here for a bit,I'll be here for some time,I'll be here for a while,something else,0,"<p><img src=""../proexpec/q/q_b_15.jpg"" class=""scaled-img"" /></p><p>How likely do you think it is that someone would use these sentences? <br> Make sure that your responses sum up to one hundred percent.</p>",,93898,5,html-multi-slider-response,,15
35,Condition 1,0.0-6.0,,0,0,100,0,11037,I'll be here for a bit,I'll be here for some time,I'll be here for a while,something else,0,"<p><img src=""../proexpec/q/q_b_60.jpg"" class=""scaled-img"" /></p><p>How likely do you think it is that someone would use these sentences? <br> Make sure that your responses sum up to one hundred percent.</p>",,105195,6,html-multi-slider-response,,60
35,Condition 1,0.0-7.0,,0,0,100,0,6485,I'll be here for a bit,I'll be here for some time,I'll be here for a while,something else,0,"<p><img src=""../proexpec/q/q_b_90.jpg"" class=""scaled-img"" /></p><p>How likely do you think it is that someone would use these sentences? <br> Make sure that your responses sum up to one hundred percent.</p>",,111937,7,html-multi-slider-response,,90
35,Condition 1,0.0-8.0,,0,0,50,50,13030,I'll be here for a bit,I'll be here for some time,I'll be here for a while,something else,0,"<p><img src=""../proexpec/q/q_b_120.jpg"" class=""scaled-img"" /></p><p>How likely do you think it is that someone would use these sentences? <br> Make sure that your responses sum up to one hundred percent.</p>",,125231,8,html-multi-slider-response,,120
35,Condition 1,0.0-9.0,,50,0,50,0,17838,I'll be here for a bit,I'll be here for some time,I'll be here for a while,something else,0,"<p><img src=""../proexpec/q/q_b_20.jpg"" class=""scaled-img"" /></p><p>How likely do you think it is that someone would use these sentences? <br> Make sure that your responses sum up to one hundred percent.</p>",,143334,9,html-multi-slider-response,,20
35,Condition 1,0.0-10.0,,100,0,0,0,7190,I'll be here for a bit,I'll be here for some time,I'll be here for a while,something else,0,"<p><img src=""../proexpec/q/q_b_15.jpg"" class=""scaled-img"" /></p><p>How likely do you think it is that someone would use these sentences? <br> Make sure that your responses sum up to one hundred percent.</p>",,150784,10,html-multi-slider-response,,15
35,Condition 1,0.0-11.0,,30,0,70,0,20490,I'll be here for a bit,I'll be here for some time,I'll be here for a while,something else,0,"<p><img src=""../proexpec/q/q_b_45.jpg"" class=""scaled-img"" /></p><p>How likely do you think it is that someone would use these sentences? <br> Make sure that your responses sum up to one hundred percent.</p>",,171529,11,html-multi-slider-response,,45
35,Condition 1,0.0-12.0,,20,0,0,80,17154,I'll be here for a bit,I'll be here for some time,I'll be here for a while,something else,0,"<p><img src=""../proexpec/q/q_b_10.jpg"" class=""scaled-img"" /></p><p>How likely do you think it is that someone would use these sentences? <br> Make sure that your responses sum up to one hundred percent.</p>",,188944,12,html-multi-slider-response,,10
35,Condition 1,0.0-13.0,,50,0,50,0,16645,I'll be here for a bit,I'll be here for some time,I'll be here for a while,something else,0,"<p><img src=""../proexpec/q/q_b_20.jpg"" class=""scaled-img"" /></p><p>How likely do you think it is that someone would use these sentences? <br> Make sure that your responses sum up to one hundred percent.</p>",,205852,13,html-multi-slider-response,,20
35,Condition 1,0.0-14.0,,20,0,80,0,10489,I'll be here for a bit,I'll be here for some time,I'll be here for a while,something else,0,"<p><img src=""../proexpec/q/q_b_30.jpg"" class=""scaled-img"" /></p><p>How likely do you think it is that someone would use these sentences? <br> Make sure that your responses sum up to one hundred percent.</p>",,216598,14,html-multi-slider-response,,30
35,Condition 1,0.0-15.0,,0,0,100,0,8238,I'll be here for a bit,I'll be here for some time,I'll be here for a while,something else,0,"<p><img src=""../proexpec/q/q_b_90.jpg"" class=""scaled-img"" /></p><p>How likely do you think it is that someone would use these sentences? <br> Make sure that your responses sum up to one hundred percent.</p>",,225096,15,html-multi-slider-response,,90
35,Condition 1,0.0-16.0,,0,0,50,50,8413,I'll be here for a bit,I'll be here for some time,I'll be here for a while,something else,0,"<p><img src=""../proexpec/q/q_b_120.jpg"" class=""scaled-img"" /></p><p>How likely do you think it is that someone would use these sentences? <br> Make sure that your responses sum up to one hundred percent.</p>",,233767,16,html-multi-slider-response,,120
35,Condition 1,0.0-17.0,,5,0,0,95,9999,I'll be here for a bit,I'll be here for some time,I'll be here for a while,something else,0,"<p><img src=""../proexpec/q/q_b_5.jpg"" class=""scaled-img"" /></p><p>How likely do you think it is that someone would use these sentences? <br> Make sure that your responses sum up to one hundred percent.</p>",,244033,17,html-multi-slider-response,,5
35,Condition 1,0.0-18.0,,0,0,100,0,7370,I'll be here for a bit,I'll be here for some time,I'll be here for a while,something else,0,"<p><img src=""../proexpec/q/q_b_60.jpg"" class=""scaled-img"" /></p><p>How likely do you think it is that someone would use these sentences? <br> Make sure that your responses sum up to one hundred percent.</p>",,251657,18,html-multi-slider-response,,60
35,Condition 1,0.0-19.0,,5,0,0,95,10286,I'll be here for a bit,I'll be here for some time,I'll be here for a while,something else,0,"<p><img src=""../proexpec/q/q_b_5.jpg"" class=""scaled-img"" /></p><p>How likely do you think it is that someone would use these sentences? <br> Make sure that your responses sum up to one hundred percent.</p>",,262202,19,html-multi-slider-response,,5
35,Condition 1,0.0-20.0,,50,0,50,0,13324,I'll be here for a bit,I'll be here for some time,I'll be here for a while,something else,0,"<p><img src=""../proexpec/q/q_b_30.jpg"" class=""scaled-img"" /></p><p>How likely do you think it is that someone would use these sentences? <br> Make sure that your responses sum up to one hundred percent.</p>",,275786,20,html-multi-slider-response,,30
35,Condition 1,0.0-21.0,,0,0,100,0,9668,I'll be here for a bit,I'll be here for some time,I'll be here for a while,something else,0,"<p><img src=""../proexpec/q/q_b_45.jpg"" class=""scaled-img"" /></p><p>How likely do you think it is that someone would use these sentences? <br> Make sure that your responses sum up to one hundred percent.</p>",,285711,21,html-multi-slider-response,,45
35,Condition 1,0.0-22.0,,10,0,0,90,8017,I'll be here for a bit,I'll be here for some time,I'll be here for a while,something else,0,"<p><img src=""../proexpec/q/q_b_10.jpg"" class=""scaled-img"" /></p><p>How likely do you think it is that someone would use these sentences? <br> Make sure that your responses sum up to one hundred percent.</p>",,293989,22,html-multi-slider-response,,10
10,Condition 1,0.0-5.0,,100,0,0,0,16663,I'll be here for a bit,I'll be here for some time,I'll be here for a while,something else,0,"<p><img src=""../proexpec/q/q_b_15.jpg"" class=""scaled-img"" /></p><p>How likely do you think it is that someone would use these sentences? <br> Make sure that your responses sum up to one hundred percent.</p>",,55378,5,html-multi-slider-response,,15
10,Condition 1,0.0-6.0,,25,25,25,25,22781,I'll be here for a bit,I'll be here for some time,I'll be here for a while,something else,0,"<p><img src=""../proexpec/q/q_b_10.jpg"" class=""scaled-img"" /></p><p>How likely do you think it is that someone would use these sentences? <br> Make sure that your responses sum up to one hundred percent.</p>",,78413,6,html-multi-slider-response,,10
10,Condition 1,0.0-7.0,,50,0,0,50,17865,I'll be here for a bit,I'll be here for some time,I'll be here for a while,something else,0,"<p><img src=""../proexpec/q/q_b_15.jpg"" class=""scaled-img"" /></p><p>How likely do you think it is that someone would use these sentences? <br> Make sure that your responses sum up to one hundred percent.</p>",,96531,7,html-multi-slider-response,,15
10,Condition 1,0.0-8.0,,0,0,0,100,11646,I'll be here for a bit,I'll be here for some time,I'll be here for a while,something else,0,"<p><img src=""../proexpec/q/q_b_60.jpg"" class=""scaled-img"" /></p><p>How likely do you think it is that someone would use these sentences? <br> Make sure that your responses sum up to one hundred percent.</p>",,108431,8,html-multi-slider-response,,60
10,Condition 1,0.0-9.0,,0,0,0,100,3747,I'll be here for a bit,I'll be here for some time,I'll be here for a while,something else,0,"<p><img src=""../proexpec/q/q_b_120.jpg"" class=""scaled-img"" /></p><p>How likely do you think it is that someone would use these sentences? <br> Make sure that your responses sum up to one hundred percent.</p>",,112432,9,html-multi-slider-response,,120
10,Condition 1,0.0-10.0,,50,50,0,0,15998,I'll be here for a bit,I'll be here for some time,I'll be here for a while,something else,0,"<p><img src=""../proexpec/q/q_b_30.jpg"" class=""scaled-img"" /></p><p>How likely do you think it is that someone would use these sentences? <br> Make sure that your responses sum up to one hundred percent.</p>",,128683,10,html-multi-slider-response,,30
10,Condition 1,0.0-11.0,,50,0,50,0,12114,I'll be here for a bit,I'll be here for some time,I'll be here for a while,something else,0,"<p><img src=""../proexpec/q/q_b_30.jpg"" class=""scaled-img"" /></p><p>How likely do you think it is that someone would use these sentences? <br> Make sure that your responses sum up to one hundred percent.</p>",,141050,11,html-multi-slider-response,,30
10,Condition 1,0.0-12.0,,0,100,0,0,6497,I'll be here for a bit,I'll be here for some time,I'll be here for a while,something else,0,"<p><img src=""../proexpec/q/q_b_45.jpg"" class=""scaled-img"" /></p><p>How likely do you think it is that someone would use these sentences? <br> Make sure that your responses sum up to one hundred percent.</p>",,147801,12,html-multi-slider-response,,45
10,Condition 1,0.0-13.0,,0,0,0,100,3913,I'll be here for a bit,I'll be here for some time,I'll be here for a while,something else,0,"<p><img src=""../proexpec/q/q_b_90.jpg"" class=""scaled-img"" /></p><p>How likely do you think it is that someone would use these sentences? <br> Make sure that your responses sum up to one hundred percent.</p>",,151968,13,html-multi-slider-response,,90
10,Condition 1,0.0-14.0,,0,0,0,100,7047,I'll be here for a bit,I'll be here for some time,I'll be here for a while,something else,0,"<p><img src=""../proexpec/q/q_b_60.jpg"" class=""scaled-img"" /></p><p>How likely do you think it is that someone would use these sentences? <br> Make sure that your responses sum up to one hundred percent.</p>",,159268,14,html-multi-slider-response,,60
10,Condition 1,0.0-15.0,,0,0,0,100,3747,I'll be here for a bit,I'll be here for some time,I'll be here for a while,something else,0,"<p><img src=""../proexpec/q/q_b_120.jpg"" class=""scaled-img"" /></p><p>How likely do you think it is that someone would use these sentences? <br> Make sure that your responses sum up to one hundred percent.</p>",,163268,15,html-multi-slider-response,,120
10,Condition 1,0.0-16.0,,0,50,0,50,13314,I'll be here for a bit,I'll be here for some time,I'll be here for a while,something else,0,"<p><img src=""../proexpec/q/q_b_45.jpg"" class=""scaled-img"" /></p><p>How likely do you think it is that someone would use these sentences? <br> Make sure that your responses sum up to one hundred percent.</p>",,176836,16,html-multi-slider-response,,45
10,Condition 1,0.0-17.0,,0,0,0,100,6797,I'll be here for a bit,I'll be here for some time,I'll be here for a while,something else,0,"<p><img src=""../proexpec/q/q_b_5.jpg"" class=""scaled-img"" /></p><p>How likely do you think it is that someone would use these sentences? <br> Make sure that your responses sum up to one hundred percent.</p>",,183886,17,html-multi-slider-response,,5
10,Condition 1,0.0-18.0,,0,0,0,100,6098,I'll be here for a bit,I'll be here for some time,I'll be here for a while,something else,0,"<p><img src=""../proexpec/q/q_b_5.jpg"" class=""scaled-img"" /></p><p>How likely do you think it is that someone would use these sentences? <br> Make sure that your responses sum up to one hundred percent.</p>",,190237,18,html-multi-slider-response,,5
10,Condition 1,0.0-19.0,,100,0,0,0,4947,I'll be here for a bit,I'll be here for some time,I'll be here for a while,something else,0,"<p><img src=""../proexpec/q/q_b_20.jpg"" class=""scaled-img"" /></p><p>How likely do you think it is that someone would use these sentences? <br> Make sure that your responses sum up to one hundred percent.</p>",,195437,19,html-multi-slider-response,,20
10,Condition 1,0.0-20.0,,0,0,0,100,4347,I'll be here for a bit,I'll be here for some time,I'll be here for a while,something else,0,"<p><img src=""../proexpec/q/q_b_10.jpg"" class=""scaled-img"" /></p><p>How likely do you think it is that someone would use these sentences? <br> Make sure that your responses sum up to one hundred percent.</p>",,200037,20,html-multi-slider-response,,10
10,Condition 1,0.0-21.0,,100,0,0,0,3881,I'll be here for a bit,I'll be here for some time,I'll be here for a while,something else,0,"<p><img src=""../proexpec/q/q_b_20.jpg"" class=""scaled-img"" /></p><p>How likely do you think it is that someone would use these sentences? <br> Make sure that your responses sum up to one hundred percent.</p>",,204171,21,html-multi-slider-response,,20
10,Condition 1,0.0-22.0,,0,0,0,100,5730,I'll be here for a bit,I'll be here for some time,I'll be here for a while,something else,0,"<p><img src=""../proexpec/q/q_b_90.jpg"" class=""scaled-img"" /></p><p>How likely do you think it is that someone would use these sentences? <br> Make sure that your responses sum up to one hundred percent.</p>",,210154,22,html-multi-slider-response,,90
42,Condition 1,0.0-5.0,,23,0,0,77,35847,I'll be here for a bit,I'll be here for some time,I'll be here for a while,something else,0,"<p><img src=""../proexpec/q/q_b_5.jpg"" class=""scaled-img"" /></p><p>How likely do you think it is that someone would use these sentences? <br> Make sure that your responses sum up to one hundred percent.</p>",,88790,5,html-multi-slider-response,,5
42,Condition 1,0.0-6.0,,60,10,0,30,19111,I'll be here for a bit,I'll be here for some time,I'll be here for a while,something else,0,"<p><img src=""../proexpec/q/q_b_10.jpg"" class=""scaled-img"" /></p><p>How likely do you think it is that someone would use these sentences? <br> Make sure that your responses sum up to one hundred percent.</p>",,108159,6,html-multi-slider-response,,10
42,Condition 1,0.0-7.0,,0,10,90,0,11567,I'll be here for a bit,I'll be here for some time,I'll be here for a while,something else,0,"<p><img src=""../proexpec/q/q_b_90.jpg"" class=""scaled-img"" /></p><p>How likely do you think it is that someone would use these sentences? <br> Make sure that your responses sum up to one hundred percent.</p>",,119996,7,html-multi-slider-response,,90
42,Condition 1,0.0-8.0,,10,50,40,0,25942,I'll be here for a bit,I'll be here for some time,I'll be here for a while,something else,0,"<p><img src=""../proexpec/q/q_b_60.jpg"" class=""scaled-img"" /></p><p>How likely do you think it is that someone would use these sentences? <br> Make sure that your responses sum up to one hundred percent.</p>",,146204,8,html-multi-slider-response,,60
42,Condition 1,0.0-9.0,,0,10,90,0,8963,I'll be here for a bit,I'll be here for some time,I'll be here for a while,something else,0,"<p><img src=""../proexpec/q/q_b_120.jpg"" class=""scaled-img"" /></p><p>How likely do you think it is that someone would use these sentences? <br> Make sure that your responses sum up to one hundred percent.</p>",,155434,9,html-multi-slider-response,,120
42,Condition 1,0.0-10.0,,50,40,0,10,13725,I'll be here for a bit,I'll be here for some time,I'll be here for a while,something else,0,"<p><img src=""../proexpec/q/q_b_30.jpg"" class=""scaled-img"" /></p><p>How likely do you think it is that someone would use these sentences? <br> Make sure that your responses sum up to one hundred percent.</p>",,169422,10,html-multi-slider-response,,30
42,Condition 1,0.0-11.0,,80,0,0,20,8341,I'll be here for a bit,I'll be here for some time,I'll be here for a while,something else,0,"<p><img src=""../proexpec/q/q_b_15.jpg"" class=""scaled-img"" /></p><p>How likely do you think it is that someone would use these sentences? <br> Make sure that your responses sum up to one hundred percent.</p>",,178017,11,html-multi-slider-response,,15
42,Condition 1,0.0-12.0,,0,70,10,20,15395,I'll be here for a bit,I'll be here for some time,I'll be here for a while,something else,0,"<p><img src=""../proexpec/q/q_b_45.jpg"" class=""scaled-img"" /></p><p>How likely do you think it is that someone would use these sentences? <br> Make sure that your responses sum up to one hundred percent.</p>",,193667,12,html-multi-slider-response,,45
42,Condition 1,0.0-13.0,,70,20,0,10,17903,I'll be here for a bit,I'll be here for some time,I'll be here for a while,something else,0,"<p><img src=""../proexpec/q/q_b_30.jpg"" class=""scaled-img"" /></p><p>How likely do you think it is that someone would use these sentences? <br> Make sure that your responses sum up to one hundred percent.</p>",,211826,13,html-multi-slider-response,,30
42,Condition 1,0.0-14.0,,80,0,0,20,13067,I'll be here for a bit,I'll be here for some time,I'll be here for a while,something else,0,"<p><img src=""../proexpec/q/q_b_20.jpg"" class=""scaled-img"" /></p><p>How likely do you think it is that someone would use these sentences? <br> Make sure that your responses sum up to one hundred percent.</p>",,225148,14,html-multi-slider-response,,20
42,Condition 1,0.0-15.0,,0,60,10,30,27446,I'll be here for a bit,I'll be here for some time,I'll be here for a while,something else,0,"<p><img src=""../proexpec/q/q_b_90.jpg"" class=""scaled-img"" /></p><p>How likely do you think it is that someone would use these sentences? <br> Make sure that your responses sum up to one hundred percent.</p>",,252858,15,html-multi-slider-response,,90
42,Condition 1,0.0-16.0,,20,0,0,80,19677,I'll be here for a bit,I'll be here for some time,I'll be here for a while,something else,0,"<p><img src=""../proexpec/q/q_b_5.jpg"" class=""scaled-img"" /></p><p>How likely do you think it is that someone would use these sentences? <br> Make sure that your responses sum up to one hundred percent.</p>",,272805,16,html-multi-slider-response,,5
42,Condition 1,0.0-17.0,,10,70,20,0,396673,I'll be here for a bit,I'll be here for some time,I'll be here for a while,something else,0,"<p><img src=""../proexpec/q/q_b_45.jpg"" class=""scaled-img"" /></p><p>How likely do you think it is that someone would use these sentences? <br> Make sure that your responses sum up to one hundred percent.</p>",,669738,17,html-multi-slider-response,,45
42,Condition 1,0.0-18.0,,60,0,0,40,9008,I'll be here for a bit,I'll be here for some time,I'll be here for a while,something else,0,"<p><img src=""../proexpec/q/q_b_10.jpg"" class=""scaled-img"" /></p><p>How likely do you think it is that someone would use these sentences? <br> Make sure that your responses sum up to one hundred percent.</p>",,679005,18,html-multi-slider-response,,10
42,Condition 1,0.0-19.0,,90,0,0,10,8199,I'll be here for a bit,I'll be here for some time,I'll be here for a while,something else,0,"<p><img src=""../proexpec/q/q_b_15.jpg"" class=""scaled-img"" /></p><p>How likely do you think it is that someone would use these sentences? <br> Make sure that your responses sum up to one hundred percent.</p>",,687461,19,html-multi-slider-response,,15
42,Condition 1,0.0-20.0,,0,20,80,0,13169,I'll be here for a bit,I'll be here for some time,I'll be here for a while,something else,0,"<p><img src=""../proexpec/q/q_b_120.jpg"" class=""scaled-img"" /></p><p>How likely do you think it is that someone would use these sentences? <br> Make sure that your responses sum up to one hundred percent.</p>",,700889,20,html-multi-slider-response,,120
42,Condition 1,0.0-21.0,,0,80,20,0,8702,I'll be here for a bit,I'll be here for some time,I'll be here for a while,something else,0,"<p><img src=""../proexpec/q/q_b_60.jpg"" class=""scaled-img"" /></p><p>How likely do you think it is that someone would use these sentences? <br> Make sure that your responses sum up to one hundred percent.</p>",,709845,21,html-multi-slider-response,,60
42,Condition 1,0.0-22.0,,80,0,0,20,10458,I'll be here for a bit,I'll be here for some time,I'll be here for a while,something else,0,"<p><img src=""../proexpec/q/q_b_20.jpg"" class=""scaled-img"" /></p><p>How likely do you think it is that someone would use these sentences? <br> Make sure that your responses sum up to one hundred percent.</p>",,720566,22,html-multi-slider-response,,20
7,Condition 1,0.0-5.0,,15,10,75,0,29614,I'll be here for a bit,I'll be here for some time,I'll be here for a while,something else,0,"<p><img src=""../proexpec/q/q_b_5.jpg"" class=""scaled-img"" /></p><p>How likely do you think it is that someone would use these sentences? <br> Make sure that your responses sum up to one hundred percent.</p>",,68568,5,html-multi-slider-response,,5
7,Condition 1,0.0-6.0,,10,15,75,0,17011,I'll be here for a bit,I'll be here for some time,I'll be here for a while,something else,0,"<p><img src=""../proexpec/q/q_b_90.jpg"" class=""scaled-img"" /></p><p>How likely do you think it is that someone would use these sentences? <br> Make sure that your responses sum up to one hundred percent.</p>",,85841,6,html-multi-slider-response,,90
7,Condition 1,0.0-7.0,,10,25,65,0,27964,I'll be here for a bit,I'll be here for some time,I'll be here for a while,something else,0,"<p><img src=""../proexpec/q/q_b_30.jpg"" class=""scaled-img"" /></p><p>How likely do you think it is that someone would use these sentences? <br> Make sure that your responses sum up to one hundred percent.</p>",,114071,7,html-multi-slider-response,,30
7,Condition 1,0.0-8.0,,5,30,15,50,27742,I'll be here for a bit,I'll be here for some time,I'll be here for a while,something else,0,"<p><img src=""../proexpec/q/q_b_60.jpg"" class=""scaled-img"" /></p><p>How likely do you think it is that someone would use these sentences? <br> Make sure that your responses sum up to one hundred percent.</p>",,142081,8,html-multi-slider-response,,60
7,Condition 1,0.0-9.0,,0,0,0,100,7496,I'll be here for a bit,I'll be here for some time,I'll be here for a while,something else,0,"<p><img src=""../proexpec/q/q_b_120.jpg"" class=""scaled-img"" /></p><p>How likely do you think it is that someone would use these sentences? <br> Make sure that your responses sum up to one hundred percent.</p>",,149843,9,html-multi-slider-response,,120
7,Condition 1,0.0-10.0,,3,7,10,80,15425,I'll be here for a bit,I'll be here for some time,I'll be here for a while,something else,0,"<p><img src=""../proexpec/q/q_b_90.jpg"" class=""scaled-img"" /></p><p>How likely do you think it is that someone would use these sentences? <br> Make sure that your responses sum up to one hundred percent.</p>",,165550,10,html-multi-slider-response,,90
7,Condition 1,0.0-11.0,,75,10,15,0,18003,I'll be here for a bit,I'll be here for some time,I'll be here for a while,something else,0,"<p><img src=""../proexpec/q/q_b_15.jpg"" class=""scaled-img"" /></p><p>How likely do you think it is that someone would use these sentences? <br> Make sure that your responses sum up to one hundred percent.</p>",,183812,11,html-multi-slider-response,,15
7,Condition 1,0.0-12.0,,60,5,5,30,118432,I'll be here for a bit,I'll be here for some time,I'll be here for a while,something else,0,"<p><img src=""../proexpec/q/q_b_5.jpg"" class=""scaled-img"" /></p><p>How likely do you think it is that someone would use these sentences? <br> Make sure that your responses sum up to one hundred percent.</p>",,302518,12,html-multi-slider-response,,5
7,Condition 1,0.0-13.0,,50,15,15,20,20922,I'll be here for a bit,I'll be here for some time,I'll be here for a while,something else,0,"<p><img src=""../proexpec/q/q_b_10.jpg"" class=""scaled-img"" /></p><p>How likely do you think it is that someone would use these sentences? <br> Make sure that your responses sum up to one hundred percent.</p>",,323708,13,html-multi-slider-response,,10
7,Condition 1,0.0-14.0,,50,20,20,10,20079,I'll be here for a bit,I'll be here for some time,I'll be here for a while,something else,0,"<p><img src=""../proexpec/q/q_b_15.jpg"" class=""scaled-img"" /></p><p>How likely do you think it is that someone would use these sentences? <br> Make sure that your responses sum up to one hundred percent.</p>",,344046,14,html-multi-slider-response,,15
7,Condition 1,0.0-15.0,,0,15,25,60,14218,I'll be here for a bit,I'll be here for some time,I'll be here for a while,something else,0,"<p><img src=""../proexpec/q/q_b_60.jpg"" class=""scaled-img"" /></p><p>How likely do you think it is that someone would use these sentences? <br> Make sure that your responses sum up to one hundred percent.</p>",,358531,15,html-multi-slider-response,,60
7,Condition 1,0.0-16.0,,70,5,25,0,11053,I'll be here for a bit,I'll be here for some time,I'll be here for a while,something else,0,"<p><img src=""../proexpec/q/q_b_10.jpg"" class=""scaled-img"" /></p><p>How likely do you think it is that someone would use these sentences? <br> Make sure that your responses sum up to one hundred percent.</p>",,369845,16,html-multi-slider-response,,10
7,Condition 1,0.0-17.0,,0,30,40,30,13114,I'll be here for a bit,I'll be here for some time,I'll be here for a while,something else,0,"<p><img src=""../proexpec/q/q_b_45.jpg"" class=""scaled-img"" /></p><p>How likely do you think it is that someone would use these sentences? <br> Make sure that your responses sum up to one hundred percent.</p>",,383225,17,html-multi-slider-response,,45
7,Condition 1,0.0-18.0,,20,30,50,0,89631,I'll be here for a bit,I'll be here for some time,I'll be here for a while,something else,0,"<p><img src=""../proexpec/q/q_b_20.jpg"" class=""scaled-img"" /></p><p>How likely do you think it is that someone would use these sentences? <br> Make sure that your responses sum up to one hundred percent.</p>",,473177,18,html-multi-slider-response,,20
7,Condition 1,0.0-19.0,,0,40,60,0,14597,I'll be here for a bit,I'll be here for some time,I'll be here for a while,something else,0,"<p><img src=""../proexpec/q/q_b_45.jpg"" class=""scaled-img"" /></p><p>How likely do you think it is that someone would use these sentences? <br> Make sure that your responses sum up to one hundred percent.</p>",,488257,19,html-multi-slider-response,,45
7,Condition 1,0.0-20.0,,15,40,45,0,13549,I'll be here for a bit,I'll be here for some time,I'll be here for a while,something else,0,"<p><img src=""../proexpec/q/q_b_30.jpg"" class=""scaled-img"" /></p><p>How likely do you think it is that someone would use these sentences? <br> Make sure that your responses sum up to one hundred percent.</p>",,502060,20,html-multi-slider-response,,30
7,Condition 1,0.0-21.0,,35,20,45,0,15753,I'll be here for a bit,I'll be here for some time,I'll be here for a while,something else,0,"<p><img src=""../proexpec/q/q_b_20.jpg"" class=""scaled-img"" /></p><p>How likely do you think it is that someone would use these sentences? <br> Make sure that your responses sum up to one hundred percent.</p>",,518077,21,html-multi-slider-response,,20
7,Condition 1,0.0-22.0,,0,0,20,80,7899,I'll be here for a bit,I'll be here for some time,I'll be here for a while,something else,0,"<p><img src=""../proexpec/q/q_b_120.jpg"" class=""scaled-img"" /></p><p>How likely do you think it is that someone would use these sentences? <br> Make sure that your responses sum up to one hundred percent.</p>",,526231,22,html-multi-slider-response,,120
55,Condition 1,0.0-5.0,,75,5,5,15,58797,I'll be here for a bit,I'll be here for some time,I'll be here for a while,something else,0,"<p><img src=""../proexpec/q/q_b_5.jpg"" class=""scaled-img"" /></p><p>How likely do you think it is that someone would use these sentences? <br> Make sure that your responses sum up to one hundred percent.</p>",,124652,5,html-multi-slider-response,,5
55,Condition 1,0.0-6.0,,10,50,30,10,55259,I'll be here for a bit,I'll be here for some time,I'll be here for a while,something else,0,"<p><img src=""../proexpec/q/q_b_30.jpg"" class=""scaled-img"" /></p><p>How likely do you think it is that someone would use these sentences? <br> Make sure that your responses sum up to one hundred percent.</p>",,180171,6,html-multi-slider-response,,30
55,Condition 1,0.0-7.0,,25,25,25,25,24476,I'll be here for a bit,I'll be here for some time,I'll be here for a while,something else,0,"<p><img src=""../proexpec/q/q_b_20.jpg"" class=""scaled-img"" /></p><p>How likely do you think it is that someone would use these sentences? <br> Make sure that your responses sum up to one hundred percent.</p>",,204904,7,html-multi-slider-response,,20
55,Condition 1,0.0-8.0,,30,20,30,20,35421,I'll be here for a bit,I'll be here for some time,I'll be here for a while,something else,0,"<p><img src=""../proexpec/q/q_b_15.jpg"" class=""scaled-img"" /></p><p>How likely do you think it is that someone would use these sentences? <br> Make sure that your responses sum up to one hundred percent.</p>",,240575,8,html-multi-slider-response,,15
55,Condition 1,0.0-9.0,,20,30,30,20,22336,I'll be here for a bit,I'll be here for some time,I'll be here for a while,something else,0,"<p><img src=""../proexpec/q/q_b_20.jpg"" class=""scaled-img"" /></p><p>How likely do you think it is that someone would use these sentences? <br> Make sure that your responses sum up to one hundred percent.</p>",,263167,9,html-multi-slider-response,,20
55,Condition 1,0.0-10.0,,5,60,30,5,45484,I'll be here for a bit,I'll be here for some time,I'll be here for a while,something else,0,"<p><img src=""../proexpec/q/q_b_90.jpg"" class=""scaled-img"" /></p><p>How likely do you think it is that someone would use these sentences? <br> Make sure that your responses sum up to one hundred percent.</p>",,308915,10,html-multi-slider-response,,90
55,Condition 1,0.0-11.0,,5,60,30,5,21637,I'll be here for a bit,I'll be here for some time,I'll be here for a while,something else,0,"<p><img src=""../proexpec/q/q_b_90.jpg"" class=""scaled-img"" /></p><p>How likely do you think it is that someone would use these sentences? <br> Make sure that your responses sum up to one hundred percent.</p>",,330811,11,html-multi-slider-response,,90
55,Condition 1,0.0-12.0,,60,10,10,20,36698,I'll be here for a bit,I'll be here for some time,I'll be here for a while,something else,0,"<p><img src=""../proexpec/q/q_b_15.jpg"" class=""scaled-img"" /></p><p>How likely do you think it is that someone would use these sentences? <br> Make sure that your responses sum up to one hundred percent.</p>",,367766,12,html-multi-slider-response,,15
55,Condition 1,0.0-13.0,,5,40,40,15,21806,I'll be here for a bit,I'll be here for some time,I'll be here for a while,something else,0,"<p><img src=""../proexpec/q/q_b_60.jpg"" class=""scaled-img"" /></p><p>How likely do you think it is that someone would use these sentences? <br> Make sure that your responses sum up to one hundred percent.</p>",,389838,13,html-multi-slider-response,,60
55,Condition 1,0.0-14.0,,10,5,5,80,39212,I'll be here for a bit,I'll be here for some time,I'll be here for a while,something else,0,"<p><img src=""../proexpec/q/q_b_5.jpg"" class=""scaled-img"" /></p><p>How likely do you think it is that someone would use these sentences? <br> Make sure that your responses sum up to one hundred percent.</p>",,429313,14,html-multi-slider-response,,5
55,Condition 1,0.0-15.0,,0,80,20,0,20593,I'll be here for a bit,I'll be here for some time,I'll be here for a while,something else,0,"<p><img src=""../proexpec/q/q_b_120.jpg"" class=""scaled-img"" /></p><p>How likely do you think it is that someone would use these sentences? <br> Make sure that your responses sum up to one hundred percent.</p>",,450160,15,html-multi-slider-response,,120
55,Condition 1,0.0-16.0,,70,10,10,10,30388,I'll be here for a bit,I'll be here for some time,I'll be here for a while,something else,0,"<p><img src=""../proexpec/q/q_b_10.jpg"" class=""scaled-img"" /></p><p>How likely do you think it is that someone would use these sentences? <br> Make sure that your responses sum up to one hundred percent.</p>",,480809,16,html-multi-slider-response,,10
55,Condition 1,0.0-17.0,,5,70,20,5,28923,I'll be here for a bit,I'll be here for some time,I'll be here for a while,something else,0,"<p><img src=""../proexpec/q/q_b_45.jpg"" class=""scaled-img"" /></p><p>How likely do you think it is that someone would use these sentences? <br> Make sure that your responses sum up to one hundred percent.</p>",,509993,17,html-multi-slider-response,,45
55,Condition 1,0.0-18.0,,5,70,20,5,13362,I'll be here for a bit,I'll be here for some time,I'll be here for a while,something else,0,"<p><img src=""../proexpec/q/q_b_45.jpg"" class=""scaled-img"" /></p><p>How likely do you think it is that someone would use these sentences? <br> Make sure that your responses sum up to one hundred percent.</p>",,523609,18,html-multi-slider-response,,45
55,Condition 1,0.0-19.0,,0,60,20,20,23753,I'll be here for a bit,I'll be here for some time,I'll be here for a while,something else,0,"<p><img src=""../proexpec/q/q_b_60.jpg"" class=""scaled-img"" /></p><p>How likely do you think it is that someone would use these sentences? <br> Make sure that your responses sum up to one hundred percent.</p>",,547628,19,html-multi-slider-response,,60
55,Condition 1,0.0-20.0,,5,20,70,5,23033,I'll be here for a bit,I'll be here for some time,I'll be here for a while,something else,0,"<p><img src=""../proexpec/q/q_b_30.jpg"" class=""scaled-img"" /></p><p>How likely do you think it is that someone would use these sentences? <br> Make sure that your responses sum up to one hundred percent.</p>",,570915,20,html-multi-slider-response,,30
55,Condition 1,0.0-21.0,,0,80,10,10,16342,I'll be here for a bit,I'll be here for some time,I'll be here for a while,something else,0,"<p><img src=""../proexpec/q/q_b_120.jpg"" class=""scaled-img"" /></p><p>How likely do you think it is that someone would use these sentences? <br> Make sure that your responses sum up to one hundred percent.</p>",,587523,21,html-multi-slider-response,,120
55,Condition 1,0.0-22.0,,70,5,15,10,15839,I'll be here for a bit,I'll be here for some time,I'll be here for a while,something else,0,"<p><img src=""../proexpec/q/q_b_10.jpg"" class=""scaled-img"" /></p><p>How likely do you think it is that someone would use these sentences? <br> Make sure that your responses sum up to one hundred percent.</p>",,603618,22,html-multi-slider-response,,10
27,Condition 1,0.0-5.0,,40,31,29,0,38217,I'll be here for a bit,I'll be here for some time,I'll be here for a while,something else,0,"<p><img src=""../proexpec/q/q_b_20.jpg"" class=""scaled-img"" /></p><p>How likely do you think it is that someone would use these sentences? <br> Make sure that your responses sum up to one hundred percent.</p>",,68827,5,html-multi-slider-response,,20
27,Condition 1,0.0-6.0,,42,30,28,0,12374,I'll be here for a bit,I'll be here for some time,I'll be here for a while,something else,0,"<p><img src=""../proexpec/q/q_b_45.jpg"" class=""scaled-img"" /></p><p>How likely do you think it is that someone would use these sentences? <br> Make sure that your responses sum up to one hundred percent.</p>",,81460,6,html-multi-slider-response,,45
27,Condition 1,0.0-7.0,,36,34,30,0,13994,I'll be here for a bit,I'll be here for some time,I'll be here for a while,something else,0,"<p><img src=""../proexpec/q/q_b_60.jpg"" class=""scaled-img"" /></p><p>How likely do you think it is that someone would use these sentences? <br> Make sure that your responses sum up to one hundred percent.</p>",,95713,7,html-multi-slider-response,,60
27,Condition 1,0.0-8.0,,39,33,28,0,11486,I'll be here for a bit,I'll be here for some time,I'll be here for a while,something else,0,"<p><img src=""../proexpec/q/q_b_90.jpg"" class=""scaled-img"" /></p><p>How likely do you think it is that someone would use these sentences? <br> Make sure that your responses sum up to one hundred percent.</p>",,107459,8,html-multi-slider-response,,90
27,Condition 1,0.0-9.0,,40,35,25,0,8290,I'll be here for a bit,I'll be here for some time,I'll be here for a while,something else,0,"<p><img src=""../proexpec/q/q_b_10.jpg"" class=""scaled-img"" /></p><p>How likely do you think it is that someone would use these sentences? <br> Make sure that your responses sum up to one hundred percent.</p>",,116009,9,html-multi-slider-response,,10
27,Condition 1,0.0-10.0,,36,33,31,0,5296,I'll be here for a bit,I'll be here for some time,I'll be here for a while,something else,0,"<p><img src=""../proexpec/q/q_b_10.jpg"" class=""scaled-img"" /></p><p>How likely do you think it is that someone would use these sentences? <br> Make sure that your responses sum up to one hundred percent.</p>",,121566,10,html-multi-slider-response,,10
27,Condition 1,0.0-11.0,,35,35,30,0,12363,I'll be here for a bit,I'll be here for some time,I'll be here for a while,something else,0,"<p><img src=""../proexpec/q/q_b_30.jpg"" class=""scaled-img"" /></p><p>How likely do you think it is that someone would use these sentences? <br> Make sure that your responses sum up to one hundred percent.</p>",,134188,11,html-multi-slider-response,,30
27,Condition 1,0.0-12.0,,46,28,26,0,17758,I'll be here for a bit,I'll be here for some time,I'll be here for a while,something else,0,"<p><img src=""../proexpec/q/q_b_120.jpg"" class=""scaled-img"" /></p><p>How likely do you think it is that someone would use these sentences? <br> Make sure that your responses sum up to one hundred percent.</p>",,152210,12,html-multi-slider-response,,120
27,Condition 1,0.0-13.0,,41,33,26,0,6846,I'll be here for a bit,I'll be here for some time,I'll be here for a while,something else,0,"<p><img src=""../proexpec/q/q_b_30.jpg"" class=""scaled-img"" /></p><p>How likely do you think it is that someone would use these sentences? <br> Make sure that your responses sum up to one hundred percent.</p>",,159320,13,html-multi-slider-response,,30
27,Condition 1,0.0-14.0,,37,29,34,0,6609,I'll be here for a bit,I'll be here for some time,I'll be here for a while,something else,0,"<p><img src=""../proexpec/q/q_b_15.jpg"" class=""scaled-img"" /></p><p>How likely do you think it is that someone would use these sentences? <br> Make sure that your responses sum up to one hundred percent.</p>",,166183,14,html-multi-slider-response,,15
27,Condition 1,0.0-15.0,,41,34,25,0,7696,I'll be here for a bit,I'll be here for some time,I'll be here for a while,something else,0,"<p><img src=""../proexpec/q/q_b_15.jpg"" class=""scaled-img"" /></p><p>How likely do you think it is that someone would use these sentences? <br> Make sure that your responses sum up to one hundred percent.</p>",,174137,15,html-multi-slider-response,,15
27,Condition 1,0.0-16.0,,40,34,26,0,7392,I'll be here for a bit,I'll be here for some time,I'll be here for a while,something else,0,"<p><img src=""../proexpec/q/q_b_20.jpg"" class=""scaled-img"" /></p><p>How likely do you think it is that someone would use these sentences? <br> Make sure that your responses sum up to one hundred percent.</p>",,181788,16,html-multi-slider-response,,20
27,Condition 1,0.0-17.0,,38,31,31,0,25060,I'll be here for a bit,I'll be here for some time,I'll be here for a while,something else,0,"<p><img src=""../proexpec/q/q_b_5.jpg"" class=""scaled-img"" /></p><p>How likely do you think it is that someone would use these sentences? <br> Make sure that your responses sum up to one hundred percent.</p>",,207100,17,html-multi-slider-response,,5
27,Condition 1,0.0-18.0,,38,33,29,0,6415,I'll be here for a bit,I'll be here for some time,I'll be here for a while,something else,0,"<p><img src=""../proexpec/q/q_b_5.jpg"" class=""scaled-img"" /></p><p>How likely do you think it is that someone would use these sentences? <br> Make sure that your responses sum up to one hundred percent.</p>",,213781,18,html-multi-slider-response,,5
27,Condition 1,0.0-19.0,,40,35,25,0,6097,I'll be here for a bit,I'll be here for some time,I'll be here for a while,something else,0,"<p><img src=""../proexpec/q/q_b_120.jpg"" class=""scaled-img"" /></p><p>How likely do you think it is that someone would use these sentences? <br> Make sure that your responses sum up to one hundred percent.</p>",,220138,19,html-multi-slider-response,,120
27,Condition 1,0.0-20.0,,40,33,27,0,6292,I'll be here for a bit,I'll be here for some time,I'll be here for a while,something else,0,"<p><img src=""../proexpec/q/q_b_90.jpg"" class=""scaled-img"" /></p><p>How likely do you think it is that someone would use these sentences? <br> Make sure that your responses sum up to one hundred percent.</p>",,226685,20,html-multi-slider-response,,90
27,Condition 1,0.0-21.0,,41,35,24,0,6323,I'll be here for a bit,I'll be here for some time,I'll be here for a while,something else,0,"<p><img src=""../proexpec/q/q_b_60.jpg"" class=""scaled-img"" /></p><p>How likely do you think it is that someone would use these sentences? <br> Make sure that your responses sum up to one hundred percent.</p>",,233267,21,html-multi-slider-response,,60
27,Condition 1,0.0-22.0,,52,39,9,0,7147,I'll be here for a bit,I'll be here for some time,I'll be here for a while,something else,0,"<p><img src=""../proexpec/q/q_b_45.jpg"" class=""scaled-img"" /></p><p>How likely do you think it is that someone would use these sentences? <br> Make sure that your responses sum up to one hundred percent.</p>",,240669,22,html-multi-slider-response,,45
31,Condition 1,0.0-5.0,,10,0,0,90,18668,I'll be here for a bit,I'll be here for some time,I'll be here for a while,something else,0,"<p><img src=""../proexpec/q/q_b_10.jpg"" class=""scaled-img"" /></p><p>How likely do you think it is that someone would use these sentences? <br> Make sure that your responses sum up to one hundred percent.</p>",,45565,5,html-multi-slider-response,,10
31,Condition 1,0.0-6.0,,15,0,0,85,14374,I'll be here for a bit,I'll be here for some time,I'll be here for a while,something else,0,"<p><img src=""../proexpec/q/q_b_15.jpg"" class=""scaled-img"" /></p><p>How likely do you think it is that someone would use these sentences? <br> Make sure that your responses sum up to one hundred percent.</p>",,60204,6,html-multi-slider-response,,15
31,Condition 1,0.0-7.0,,10,0,0,90,12246,I'll be here for a bit,I'll be here for some time,I'll be here for a while,something else,0,"<p><img src=""../proexpec/q/q_b_10.jpg"" class=""scaled-img"" /></p><p>How likely do you think it is that someone would use these sentences? <br> Make sure that your responses sum up to one hundred percent.</p>",,72716,7,html-multi-slider-response,,10
31,Condition 1,0.0-8.0,,30,23,17,30,18275,I'll be here for a bit,I'll be here for some time,I'll be here for a while,something else,0,"<p><img src=""../proexpec/q/q_b_30.jpg"" class=""scaled-img"" /></p><p>How likely do you think it is that someone would use these sentences? <br> Make sure that your responses sum up to one hundred percent.</p>",,91244,8,html-multi-slider-response,,30
31,Condition 1,0.0-9.0,,5,51,44,0,17651,I'll be here for a bit,I'll be here for some time,I'll be here for a while,something else,0,"<p><img src=""../proexpec/q/q_b_60.jpg"" class=""scaled-img"" /></p><p>How likely do you think it is that someone would use these sentences? <br> Make sure that your responses sum up to one hundred percent.</p>",,109156,9,html-multi-slider-response,,60
31,Condition 1,0.0-10.0,,6,40,54,0,11995,I'll be here for a bit,I'll be here for some time,I'll be here for a while,something else,0,"<p><img src=""../proexpec/q/q_b_45.jpg"" class=""scaled-img"" /></p><p>How likely do you think it is that someone would use these sentences? <br> Make sure that your responses sum up to one hundred percent.</p>",,121415,10,html-multi-slider-response,,45
31,Condition 1,0.0-11.0,,5,39,56,0,11265,I'll be here for a bit,I'll be here for some time,I'll be here for a while,something else,0,"<p><img src=""../proexpec/q/q_b_120.jpg"" class=""scaled-img"" /></p><p>How likely do you think it is that someone would use these sentences? <br> Make sure that your responses sum up to one hundred percent.</p>",,132936,11,html-multi-slider-response,,120
31,Condition 1,0.0-12.0,,8,29,63,0,13080,I'll be here for a bit,I'll be here for some time,I'll be here for a while,something else,0,"<p><img src=""../proexpec/q/q_b_90.jpg"" class=""scaled-img"" /></p><p>How likely do you think it is that someone would use these sentences? <br> Make sure that your responses sum up to one hundred percent.</p>",,146272,12,html-multi-slider-response,,90
31,Condition 1,0.0-13.0,,15,0,0,85,11244,I'll be here for a bit,I'll be here for some time,I'll be here for a while,something else,0,"<p><img src=""../proexpec/q/q_b_15.jpg"" class=""scaled-img"" /></p><p>How likely do you think it is that someone would use these sentences? <br> Make sure that your responses sum up to one hundred percent.</p>",,157768,13,html-multi-slider-response,,15
31,Condition 1,0.0-14.0,,10,40,49,0,8183,I'll be here for a bit,I'll be here for some time,I'll be here for a while,something else,0,"<p><img src=""../proexpec/q/q_b_45.jpg"" class=""scaled-img"" /></p><p>How likely do you think it is that someone would use these sentences? <br> Make sure that your responses sum up to one hundred percent.</p>",,166212,14,html-multi-slider-response,,45
31,Condition 1,0.0-15.0,,100,0,0,0,9972,I'll be here for a bit,I'll be here for some time,I'll be here for a while,something else,0,"<p><img src=""../proexpec/q/q_b_5.jpg"" class=""scaled-img"" /></p><p>How likely do you think it is that someone would use these sentences? <br> Make sure that your responses sum up to one hundred percent.</p>",,176444,15,html-multi-slider-response,,5
31,Condition 1,0.0-16.0,,30,0,0,70,7124,I'll be here for a bit,I'll be here for some time,I'll be here for a while,something else,0,"<p><img src=""../proexpec/q/q_b_30.jpg"" class=""scaled-img"" /></p><p>How likely do you think it is that someone would use these sentences? <br> Make sure that your responses sum up to one hundred percent.</p>",,183832,16,html-multi-slider-response,,30
31,Condition 1,0.0-17.0,,0,59,41,0,6655,I'll be here for a bit,I'll be here for some time,I'll be here for a while,something else,0,"<p><img src=""../proexpec/q/q_b_60.jpg"" class=""scaled-img"" /></p><p>How likely do you think it is that someone would use these sentences? <br> Make sure that your responses sum up to one hundred percent.</p>",,190744,17,html-multi-slider-response,,60
31,Condition 1,0.0-18.0,,0,0,100,0,4488,I'll be here for a bit,I'll be here for some time,I'll be here for a while,something else,0,"<p><img src=""../proexpec/q/q_b_120.jpg"" class=""scaled-img"" /></p><p>How likely do you think it is that someone would use these sentences? <br> Make sure that your responses sum up to one hundred percent.</p>",,195496,18,html-multi-slider-response,,120
31,Condition 1,0.0-19.0,,100,0,0,0,3095,I'll be here for a bit,I'll be here for some time,I'll be here for a while,something else,0,"<p><img src=""../proexpec/q/q_b_5.jpg"" class=""scaled-img"" /></p><p>How likely do you think it is that someone would use these sentences? <br> Make sure that your responses sum up to one hundred percent.</p>",,198844,19,html-multi-slider-response,,5
31,Condition 1,0.0-20.0,,100,0,0,0,2645,I'll be here for a bit,I'll be here for some time,I'll be here for a while,something else,0,"<p><img src=""../proexpec/q/q_b_20.jpg"" class=""scaled-img"" /></p><p>How likely do you think it is that someone would use these sentences? <br> Make sure that your responses sum up to one hundred percent.</p>",,201752,20,html-multi-slider-response,,20
31,Condition 1,0.0-21.0,,0,100,0,0,4058,I'll be here for a bit,I'll be here for some time,I'll be here for a while,something else,0,"<p><img src=""../proexpec/q/q_b_90.jpg"" class=""scaled-img"" /></p><p>How likely do you think it is that someone would use these sentences? <br> Make sure that your responses sum up to one hundred percent.</p>",,206072,21,html-multi-slider-response,,90
31,Condition 1,0.0-22.0,,100,0,0,0,3237,I'll be here for a bit,I'll be here for some time,I'll be here for a while,something else,0,"<p><img src=""../proexpec/q/q_b_20.jpg"" class=""scaled-img"" /></p><p>How likely do you think it is that someone would use these sentences? <br> Make sure that your responses sum up to one hundred percent.</p>",,209564,22,html-multi-slider-response,,20
46,Condition 1,0.0-5.0,,15,25,50,10,77185,I'll be here for a bit,I'll be here for some time,I'll be here for a while,something else,0,"<p><img src=""../proexpec/q/q_b_5.jpg"" class=""scaled-img"" /></p><p>How likely do you think it is that someone would use these sentences? <br> Make sure that your responses sum up to one hundred percent.</p>",,143036,5,html-multi-slider-response,,5
46,Condition 1,0.0-6.0,,10,60,25,5,36496,I'll be here for a bit,I'll be here for some time,I'll be here for a while,something else,0,"<p><img src=""../proexpec/q/q_b_45.jpg"" class=""scaled-img"" /></p><p>How likely do you think it is that someone would use these sentences? <br> Make sure that your responses sum up to one hundred percent.</p>",,179797,6,html-multi-slider-response,,45
46,Condition 1,0.0-7.0,,15,25,50,10,24537,I'll be here for a bit,I'll be here for some time,I'll be here for a while,something else,0,"<p><img src=""../proexpec/q/q_b_30.jpg"" class=""scaled-img"" /></p><p>How likely do you think it is that someone would use these sentences? <br> Make sure that your responses sum up to one hundred percent.</p>",,204599,7,html-multi-slider-response,,30
46,Condition 1,0.0-8.0,,40,5,35,20,31902,I'll be here for a bit,I'll be here for some time,I'll be here for a while,something else,0,"<p><img src=""../proexpec/q/q_b_10.jpg"" class=""scaled-img"" /></p><p>How likely do you think it is that someone would use these sentences? <br> Make sure that your responses sum up to one hundred percent.</p>",,236757,8,html-multi-slider-response,,10
46,Condition 1,0.0-9.0,,35,25,35,5,25148,I'll be here for a bit,I'll be here for some time,I'll be here for a while,something else,0,"<p><img src=""../proexpec/q/q_b_20.jpg"" class=""scaled-img"" /></p><p>How likely do you think it is that someone would use these sentences? <br> Make sure that your responses sum up to one hundred percent.</p>",,262165,9,html-multi-slider-response,,20
